angleSpeedx_y_z;lineAccx_y_z
0.02,-0.02,0.08,-0.03,-0.20,9.79
0.02,-0.00,0.08,-0.03,-0.19,9.79
-0.01,-0.03,0.05,-0.04,-0.19,9.80
-0.03,-0.05,0.06,-0.04,-0.20,9.80
-0.02,-0.03,0.06,-0.04,-0.20,9.79
-0.01,-0.05,0.08,-0.03,-0.19,9.80
-0.01,-0.05,0.06,-0.03,-0.20,9.80
0.00,-0.01,0.06,-0.04,-0.20,9.80
0.01,-0.02,0.07,-0.04,-0.20,9.80
-0.01,-0.01,0.07,-0.04,-0.20,9.81
-0.00,0.02,0.05,-0.03,-0.19,9.80
0.00,0.03,0.05,-0.03,-0.20,9.80
-0.00,-0.01,0.03,-0.03,-0.22,9.80
0.00,-0.03,0.04,-0.04,-0.21,9.80
-0.00,0.00,0.07,-0.03,-0.21,9.79
-0.00,-0.02,0.07,-0.04,-0.21,9.79
-0.01,-0.02,0.05,-0.04,-0.21,9.79
-0.01,-0.03,0.04,-0.04,-0.21,9.79
0.01,-0.01,0.05,-0.03,-0.20,9.79
0.01,-0.01,0.05,-0.03,-0.20,9.79
-0.00,-0.02,0.03,-0.03,-0.20,9.79
0.01,-0.01,0.02,-0.03,-0.20,9.79
0.00,0.02,0.06,-0.04,-0.19,9.79
0.00,0.02,0.04,-0.04,-0.19,9.80
-0.01,0.01,0.03,-0.03,-0.19,9.80
-0.01,0.00,0.02,-0.04,-0.19,9.80
-0.03,0.02,0.07,-0.03,-0.20,9.81
-0.01,0.02,0.06,-0.04,-0.20,9.80
0.01,0.01,0.04,-0.03,-0.20,9.80
-0.00,-0.01,0.05,-0.04,-0.20,9.81
-0.01,-0.02,0.06,-0.04,-0.20,9.80
-0.00,-0.02,0.05,-0.04,-0.20,9.80
-0.01,-0.01,0.07,-0.04,-0.20,9.80
-0.01,-0.03,0.09,-0.04,-0.20,9.80
-0.02,-0.01,0.05,-0.05,-0.21,9.80
-0.04,-0.02,0.06,-0.05,-0.21,9.79
-0.02,-0.02,0.06,-0.04,-0.20,9.79
-0.00,-0.02,0.05,-0.04,-0.20,9.79
-0.02,-0.01,0.04,-0.04,-0.20,9.79
-0.00,-0.01,0.05,-0.04,-0.21,9.79
0.01,-0.00,0.06,-0.04,-0.21,9.79
-0.01,-0.01,0.05,-0.04,-0.21,9.79
0.01,-0.03,0.07,-0.04,-0.20,9.79
-0.00,-0.03,0.05,-0.04,-0.21,9.79
0.00,-0.02,0.04,-0.04,-0.21,9.79
0.01,-0.02,0.05,-0.04,-0.20,9.79
-0.02,-0.04,0.07,-0.03,-0.20,9.80
0.00,-0.03,0.05,-0.03,-0.20,9.80
0.02,-0.03,0.04,-0.03,-0.20,9.80
0.00,-0.02,0.04,-0.03,-0.20,9.80
-0.02,-0.04,0.07,-0.02,-0.20,9.80
0.00,-0.03,0.06,-0.02,-0.19,9.80
0.00,-0.03,0.04,-0.02,-0.19,9.80
-0.01,-0.02,0.04,-0.02,-0.19,9.80
-0.00,0.01,0.05,-0.02,-0.19,9.80
-0.01,-0.01,0.05,-0.03,-0.20,9.80
-0.02,0.00,0.05,-0.03,-0.20,9.80
-0.01,0.02,0.04,-0.03,-0.21,9.80
-0.01,0.02,0.04,-0.03,-0.20,9.80
0.00,0.02,0.04,-0.03,-0.19,9.80
-0.01,0.00,0.04,-0.03,-0.19,9.80
-0.03,-0.02,0.03,-0.04,-0.21,9.80
-0.03,-0.01,0.06,-0.04,-0.21,9.79
-0.01,-0.01,0.06,-0.04,-0.21,9.79
-0.02,0.01,0.05,-0.04,-0.22,9.79
-0.01,0.01,0.07,-0.04,-0.21,9.79
-0.01,0.02,0.08,-0.04,-0.21,9.79
-0.00,-0.01,0.07,-0.04,-0.21,9.79
0.00,0.01,0.07,-0.04,-0.21,9.79
0.01,0.00,0.07,-0.05,-0.22,9.78
0.01,-0.01,0.06,-0.05,-0.21,9.79
0.01,0.01,0.07,-0.05,-0.21,9.79
0.00,-0.00,0.07,-0.05,-0.21,9.79
0.03,-0.03,0.07,-0.04,-0.21,9.79
0.03,-0.03,0.07,-0.05,-0.20,9.80
-0.01,-0.04,0.06,-0.04,-0.20,9.80
0.00,-0.06,0.05,-0.04,-0.20,9.80
0.03,-0.03,0.03,-0.04,-0.20,9.80
0.01,-0.01,0.04,-0.03,-0.19,9.80
-0.00,-0.03,0.05,-0.03,-0.19,9.81
-0.01,-0.02,0.07,-0.03,-0.19,9.81
0.01,-0.01,0.06,-0.03,-0.20,9.80
0.00,0.01,0.06,-0.04,-0.20,9.80
-0.01,-0.03,0.03,-0.02,-0.20,9.80
-0.01,-0.03,0.05,-0.03,-0.20,9.80
0.00,-0.03,0.06,-0.03,-0.20,9.80
0.00,-0.03,0.05,-0.03,-0.20,9.79
0.00,-0.01,0.07,-0.03,-0.20,9.79
0.00,-0.00,0.06,-0.03,-0.20,9.79
0.00,-0.02,0.04,-0.03,-0.21,9.79
-0.03,-0.02,0.06,-0.04,-0.21,9.79
-0.01,-0.01,0.07,-0.03,-0.21,9.79
-0.01,-0.00,0.05,-0.03,-0.21,9.79
-0.03,-0.01,0.06,-0.03,-0.21,9.79
-0.00,-0.02,0.06,-0.03,-0.20,9.79
-0.01,0.01,0.07,-0.03,-0.20,9.79
0.01,0.02,0.06,-0.04,-0.21,9.78
0.00,0.00,0.05,-0.04,-0.21,9.79
-0.01,-0.01,0.08,-0.03,-0.21,9.79
-0.02,-0.01,0.07,-0.04,-0.21,9.80
-0.01,-0.00,0.04,-0.04,-0.21,9.80
-0.01,-0.01,0.03,-0.04,-0.20,9.80
0.01,0.01,0.04,-0.03,-0.20,9.81
0.01,-0.01,0.03,-0.03,-0.20,9.81
-0.00,-0.03,0.04,-0.03,-0.20,9.81
0.01,-0.02,0.03,-0.03,-0.20,9.81
-0.00,-0.01,0.05,-0.03,-0.20,9.81
-0.04,-0.01,0.03,-0.03,-0.20,9.80
-0.03,-0.03,0.05,-0.02,-0.20,9.80
-0.03,-0.02,0.08,-0.03,-0.20,9.80
-0.01,-0.02,0.09,-0.03,-0.20,9.79
0.02,-0.02,0.07,-0.03,-0.21,9.79
0.02,-0.02,0.07,-0.03,-0.21,9.79
-0.00,-0.02,0.07,-0.02,-0.20,9.79
-0.00,-0.01,0.07,-0.04,-0.21,9.79
0.01,-0.01,0.08,-0.04,-0.21,9.79
0.01,0.00,0.07,-0.03,-0.21,9.79
0.00,0.01,0.04,-0.03,-0.21,9.79
-0.00,-0.00,0.03,-0.03,-0.21,9.79
-0.02,0.01,0.04,-0.03,-0.20,9.79
-0.00,-0.02,0.05,-0.03,-0.21,9.79
0.01,-0.01,0.05,-0.04,-0.21,9.79
0.00,0.00,0.06,-0.03,-0.21,9.80
0.00,0.02,0.04,-0.03,-0.21,9.80
0.00,0.03,0.05,-0.04,-0.21,9.80
-0.01,0.01,0.09,-0.03,-0.21,9.80
-0.02,0.00,0.08,-0.04,-0.21,9.79
-0.02,-0.02,0.06,-0.05,-0.21,9.79
-0.01,-0.02,0.06,-0.05,-0.22,9.79
-0.00,-0.02,0.06,-0.05,-0.22,9.80
0.00,-0.02,0.07,-0.05,-0.21,9.79
0.01,-0.01,0.06,-0.05,-0.20,9.79
-0.01,-0.00,0.07,-0.05,-0.20,9.79
-0.02,0.00,0.09,-0.05,-0.20,9.79
0.02,-0.00,0.05,-0.04,-0.19,9.79
0.02,-0.01,0.05,-0.04,-0.19,9.79
0.03,-0.02,0.06,-0.04,-0.19,9.79
0.01,0.00,0.06,-0.04,-0.20,9.79
-0.00,-0.01,0.04,-0.03,-0.19,9.80
0.00,0.01,0.06,-0.03,-0.19,9.80
-0.01,0.00,0.05,-0.03,-0.18,9.81
-0.03,0.00,0.04,-0.02,-0.19,9.81
-0.03,0.01,0.05,-0.02,-0.20,9.81
-0.04,-0.02,0.04,-0.02,-0.20,9.82
-0.03,-0.01,0.03,-0.03,-0.20,9.82
-0.00,-0.02,0.04,-0.02,-0.20,9.82
-0.05,0.01,0.07,-0.02,-0.21,9.81
-0.03,-0.00,0.06,-0.03,-0.22,9.80
-0.01,-0.02,0.06,-0.03,-0.22,9.80
-0.03,-0.02,0.07,-0.02,-0.22,9.80
-0.01,-0.00,0.06,-0.03,-0.22,9.79
-0.01,-0.02,0.06,-0.03,-0.22,9.78
-0.02,-0.03,0.06,-0.03,-0.22,9.78
-0.02,-0.02,0.06,-0.04,-0.22,9.78
-0.01,-0.00,0.06,-0.04,-0.22,9.78
-0.00,-0.03,0.06,-0.05,-0.22,9.78
0.04,-0.01,0.05,-0.05,-0.21,9.78
0.03,-0.01,0.04,-0.05,-0.20,9.78
0.02,-0.01,0.05,-0.05,-0.20,9.79
0.02,-0.01,0.06,-0.06,-0.20,9.79
0.01,-0.02,0.05,-0.06,-0.21,9.79
0.02,-0.02,0.06,-0.04,-0.20,9.80
0.01,-0.02,0.04,-0.04,-0.19,9.81
-0.01,-0.02,0.05,-0.04,-0.19,9.82
-0.01,-0.04,0.05,-0.04,-0.20,9.82
-0.01,-0.06,0.05,-0.03,-0.20,9.82
0.01,-0.06,0.04,-0.03,-0.19,9.82
-0.02,-0.03,0.06,-0.03,-0.19,9.82
-0.04,-0.03,0.07,-0.02,-0.19,9.82
-0.02,-0.02,0.08,-0.02,-0.20,9.82
-0.01,-0.03,0.07,-0.02,-0.20,9.81
0.00,-0.03,0.06,-0.01,-0.20,9.80
-0.03,-0.01,0.07,-0.02,-0.21,9.79
-0.03,-0.02,0.06,-0.02,-0.21,9.78
0.02,-0.02,0.08,-0.02,-0.21,9.79
0.04,-0.02,0.06,-0.03,-0.20,9.78
0.01,0.00,0.06,-0.04,-0.20,9.79
-0.02,0.02,0.04,-0.04,-0.21,9.79
0.02,-0.01,0.02,-0.03,-0.21,9.78
0.04,-0.02,0.03,-0.04,-0.20,9.78
0.02,-0.01,0.03,-0.03,-0.19,9.78
-0.01,0.02,0.03,-0.03,-0.19,9.79
-0.01,0.02,0.03,-0.04,-0.19,9.80
0.03,-0.00,0.02,-0.04,-0.20,9.80
0.02,-0.01,0.04,-0.04,-0.20,9.80
0.01,0.01,0.05,-0.04,-0.19,9.81
-0.03,-0.02,0.06,-0.04,-0.19,9.82
-0.05,-0.02,0.04,-0.04,-0.20,9.82
-0.01,0.01,0.04,-0.04,-0.20,9.81
0.00,-0.02,0.06,-0.04,-0.20,9.81
-0.02,-0.01,0.08,-0.04,-0.19,9.82
-0.01,0.01,0.08,-0.05,-0.20,9.82
-0.00,-0.01,0.08,-0.05,-0.20,9.81
-0.00,-0.02,0.08,-0.05,-0.21,9.80
-0.02,-0.02,0.07,-0.04,-0.21,9.79
-0.02,-0.02,0.05,-0.05,-0.22,9.78
-0.01,-0.02,0.06,-0.05,-0.22,9.78
-0.02,-0.02,0.07,-0.05,-0.22,9.79
-0.04,-0.03,0.07,-0.04,-0.21,9.77
-0.04,0.00,0.05,-0.04,-0.21,9.77
-0.00,0.01,0.05,-0.04,-0.21,9.77
0.02,0.00,0.04,-0.04,-0.21,9.77
0.00,-0.04,0.04,-0.03,-0.20,9.78
-0.00,-0.05,0.04,-0.03,-0.21,9.78
-0.00,-0.04,0.03,-0.03,-0.21,9.78
0.01,-0.02,0.05,-0.03,-0.21,9.78
0.02,-0.01,0.05,-0.02,-0.21,9.79
-0.02,0.02,0.03,-0.04,-0.21,9.81
-0.04,0.01,0.01,-0.06,-0.22,9.82
-0.07,0.00,-0.02,-0.09,-0.25,9.84
0.05,-0.06,-0.02,-0.09,-0.26,9.82
0.10,-0.05,-0.03,-0.05,-0.21,9.81
0.03,0.00,-0.05,-0.03,-0.16,9.80
-0.11,0.02,-0.05,-0.04,-0.19,9.80
-0.01,-0.01,-0.07,-0.10,-0.33,9.80
0.17,-0.04,-0.03,-0.05,-0.27,9.79
0.18,-0.03,-0.03,0.01,-0.15,9.78
0.01,-0.01,-0.06,0.03,-0.11,9.78
-0.17,0.03,-0.04,-0.00,-0.19,9.78
0.07,-0.03,-0.01,-0.06,-0.33,9.77
0.26,-0.05,-0.00,-0.01,-0.21,9.77
0.23,-0.03,0.05,0.04,-0.07,9.77
-0.21,0.03,0.03,-0.00,-0.15,9.82
-0.14,-0.01,0.04,-0.05,-0.30,9.80
0.15,-0.10,0.07,-0.04,-0.30,9.78
0.40,-0.08,0.10,0.00,-0.17,9.75
0.41,-0.03,0.12,0.01,0.09,9.68
0.57,-0.05,0.12,-0.05,0.21,9.57
0.84,-0.13,0.10,-0.05,0.37,9.52
1.02,-0.19,0.11,-0.01,0.52,9.54
1.06,-0.20,0.11,0.06,0.47,9.55
0.85,0.22,0.15,0.03,0.50,9.78
0.70,0.27,0.12,-0.16,0.53,10.01
0.46,0.06,0.07,-0.18,0.49,10.20
0.05,-0.11,0.05,0.04,0.29,10.22
-0.08,0.04,0.06,0.06,0.20,10.21
-0.15,0.12,0.07,-0.07,0.11,10.19
-0.17,0.07,0.05,-0.11,0.13,10.29
-0.47,-0.13,-0.02,-0.12,0.31,10.12
-0.86,-0.14,-0.03,-0.03,0.27,9.97
-1.09,-0.07,-0.04,0.01,0.07,9.80
-0.96,-0.00,-0.05,-0.02,-0.11,9.71
-0.52,0.03,-0.02,-0.07,-0.12,9.65
-0.33,-0.11,-0.04,-0.06,0.14,9.56
-0.61,-0.10,-0.06,-0.00,0.08,9.50
-0.71,-0.04,-0.04,-0.01,-0.14,9.43
0.21,-0.01,0.00,-0.06,-0.35,9.42
0.58,-0.02,0.01,-0.02,-0.15,9.48
0.52,0.00,0.01,0.01,0.05,9.57
0.19,0.04,0.01,-0.01,0.07,9.65
0.13,-0.06,0.07,-0.04,-0.33,9.72
0.56,-0.06,0.06,-0.02,-0.33,9.73
0.85,-0.01,0.09,0.03,-0.12,9.79
0.70,0.04,0.11,0.04,0.13,9.89
0.23,0.05,0.11,-0.00,0.20,10.00
-0.26,-0.13,0.11,-0.06,-0.17,10.05
-0.03,-0.15,0.13,-0.00,-0.25,9.99
0.20,-0.10,0.15,0.04,-0.15,9.97
-0.32,0.02,0.13,-0.03,0.06,10.12
-0.68,-0.07,0.12,-0.11,-0.10,10.15
-0.71,-0.18,0.08,-0.12,-0.31,10.05
-0.45,-0.23,0.08,-0.05,-0.39,9.88
-0.01,0.01,0.10,0.05,-0.07,9.69
-0.18,0.09,0.07,-0.03,0.04,9.72
-0.40,0.04,0.06,-0.12,-0.03,9.74
-0.40,-0.06,0.04,-0.12,-0.18,9.67
-0.10,-0.10,0.00,-0.04,-0.27,9.54
0.46,0.12,0.02,0.05,-0.06,9.49
0.37,0.19,0.00,-0.02,0.01,9.64
0.14,0.12,-0.01,-0.11,-0.06,9.79
0.14,-0.13,-0.01,-0.07,-0.31,9.77
0.36,-0.10,-0.03,0.01,-0.29,9.70
0.45,0.05,-0.00,0.05,-0.16,9.72
0.34,0.15,0.01,-0.01,-0.04,9.83
-0.08,-0.06,0.02,-0.10,-0.04,9.94
-0.11,-0.20,0.04,-0.03,-0.07,9.84
-0.06,-0.15,0.05,0.06,-0.05,9.75
-0.03,0.01,0.05,0.09,-0.00,9.73
-0.11,0.15,0.08,0.03,0.00,9.83
-0.33,0.01,0.12,-0.11,-0.15,10.02
-0.33,-0.11,0.13,-0.06,-0.22,9.97
-0.25,-0.11,0.14,0.01,-0.23,9.86
-0.13,0.09,0.15,-0.01,-0.20,9.84
-0.13,0.06,0.14,-0.09,-0.20,9.90
-0.10,-0.06,0.13,-0.13,-0.18,9.90
-0.03,-0.16,0.13,-0.09,-0.14,9.80
0.04,-0.08,0.11,0.03,-0.06,9.60
0.12,0.02,0.09,-0.01,-0.07,9.64
0.19,0.05,0.10,-0.09,-0.09,9.72
0.23,-0.04,0.10,-0.13,-0.08,9.80
0.23,-0.13,0.07,-0.10,-0.07,9.80
0.09,-0.07,0.04,-0.00,-0.14,9.76
0.07,0.03,0.01,-0.04,-0.20,9.80
0.14,0.05,0.01,-0.09,-0.22,9.89
0.19,-0.02,0.01,-0.11,-0.17,9.94
-0.12,-0.13,-0.03,-0.03,-0.04,9.83
-0.23,-0.07,-0.03,-0.00,-0.06,9.76
-0.20,0.03,-0.04,-0.01,-0.11,9.74
-0.03,-0.03,0.00,-0.05,-0.04,9.78
-0.12,-0.07,-0.01,-0.03,0.02,9.77
-0.27,-0.10,-0.03,0.00,0.01,9.75
-0.34,-0.07,-0.02,0.02,-0.09,9.74
-0.27,-0.02,0.02,0.00,-0.20,9.76
0.06,-0.06,0.06,-0.03,-0.22,9.85
0.06,-0.09,0.06,-0.02,-0.15,9.86
-0.04,-0.10,0.06,-0.00,-0.12,9.85
-0.04,-0.09,0.07,0.01,-0.20,9.80
0.12,-0.08,0.09,0.00,-0.19,9.79
0.26,-0.07,0.13,0.01,-0.11,9.79
0.26,-0.08,0.13,0.01,-0.02,9.80
0.02,-0.01,0.14,-0.00,-0.01,9.81
-0.03,0.01,0.14,-0.01,-0.09,9.82
0.02,0.02,0.16,-0.02,-0.14,9.83
0.10,0.02,0.12,-0.03,-0.15,9.86
-0.02,0.05,0.12,-0.04,-0.11,9.90
-0.14,0.02,0.12,-0.05,-0.13,9.89
-0.17,0.00,0.09,-0.05,-0.17,9.86
-0.11,-0.01,0.07,-0.05,-0.18,9.81
-0.04,0.00,0.05,-0.03,-0.05,9.72
-0.07,0.01,0.03,-0.04,-0.00,9.70
-0.15,0.00,0.02,-0.04,0.00,9.70
-0.18,-0.02,0.01,-0.03,-0.03,9.69
0.02,-0.03,0.01,-0.03,-0.09,9.68
0.07,-0.01,0.03,-0.03,-0.08,9.71
0.03,0.05,0.03,-0.04,-0.08,9.77
-0.02,0.06,0.03,-0.06,-0.12,9.83
0.05,-0.00,0.00,-0.05,-0.20,9.85
0.14,0.01,0.02,-0.02,-0.17,9.84
0.19,0.06,0.03,-0.01,-0.10,9.84
0.14,0.09,0.06,-0.03,-0.04,9.85
0.05,0.08,0.07,-0.05,-0.02,9.86
0.04,0.01,0.07,-0.04,-0.03,9.81
0.09,0.03,0.07,-0.01,-0.01,9.79
0.09,0.04,0.08,-0.00,0.02,9.80
-0.12,0.01,0.09,-0.06,-0.03,9.90
-0.14,-0.06,0.09,-0.09,-0.11,9.91
-0.10,-0.10,0.11,-0.07,-0.15,9.88
-0.06,-0.13,0.11,-0.03,-0.14,9.85
-0.04,-0.11,0.10,-0.03,-0.10,9.81
-0.16,-0.08,0.09,-0.06,-0.07,9.82
-0.17,-0.11,0.09,-0.08,-0.10,9.78
-0.08,-0.16,0.07,-0.05,-0.09,9.72
0.04,-0.13,0.07,-0.01,-0.04,9.66
-0.00,0.04,0.07,-0.01,0.04,9.68
-0.08,0.07,0.06,-0.05,-0.01,9.73
-0.02,0.05,0.06,-0.07,-0.07,9.76
0.19,0.03,0.03,-0.03,-0.09,9.73
0.27,0.06,0.03,-0.01,-0.03,9.72
0.32,0.06,0.04,-0.02,0.05,9.74
0.31,0.05,0.04,-0.02,0.14,9.80
-0.09,0.03,0.02,-0.02,0.10,9.90
-0.20,0.03,0.00,-0.03,-0.06,9.91
-0.06,0.02,-0.01,-0.07,-0.19,9.87
0.23,-0.03,0.02,-0.04,-0.14,9.89
0.43,-0.04,0.04,-0.02,0.05,9.88
-0.12,-0.03,0.05,0.01,0.30,9.91
-0.38,-0.04,0.04,-0.04,0.14,9.82
-0.18,-0.09,0.05,-0.05,-0.02,9.74
0.61,-0.02,0.11,0.05,0.29,9.65
0.42,0.09,0.14,0.07,0.50,9.73
-0.04,0.14,0.12,-0.02,0.48,9.81
-0.32,0.08,0.13,-0.10,0.24,9.85
0.35,-0.08,0.13,-0.03,0.02,9.74
0.66,-0.02,0.13,0.05,0.23,9.73
0.47,0.11,0.14,0.04,0.45,9.80
0.04,0.13,0.12,-0.06,0.45,9.89
-0.15,0.03,0.11,-0.16,0.27,9.90
0.61,-0.17,0.14,-0.02,0.30,9.65
0.85,-0.10,0.15,0.06,0.55,9.59
0.94,0.01,0.15,0.02,0.61,9.56
0.82,0.09,0.12,-0.01,0.66,9.84
0.76,0.11,0.11,-0.05,0.69,9.98
0.44,0.06,0.10,-0.06,0.72,9.94
0.13,0.00,0.08,-0.05,0.63,9.88
0.27,0.15,0.07,-0.01,0.33,9.95
0.57,0.16,0.08,-0.06,0.41,10.00
0.66,0.11,0.08,-0.06,0.64,10.02
0.42,0.02,0.08,-0.05,0.81,9.97
0.07,0.03,0.05,0.02,0.79,9.76
0.20,0.10,0.05,0.02,0.75,9.71
0.38,0.11,0.06,0.02,0.78,9.74
0.45,0.11,0.07,-0.00,0.85,9.76
0.33,0.08,0.09,-0.00,0.90,9.77
0.33,0.07,0.10,-0.00,0.86,9.75
0.40,0.09,0.11,0.00,0.83,9.78
0.44,0.10,0.14,-0.01,0.83,9.82
0.41,0.01,0.12,-0.07,0.83,9.91
0.41,-0.05,0.13,-0.08,0.85,9.89
0.50,-0.08,0.12,-0.07,0.90,9.83
0.70,-0.15,0.13,-0.08,0.89,9.68
0.94,-0.19,0.13,-0.00,0.88,9.72
1.63,-0.12,0.13,-0.11,1.13,9.74
1.50,-0.19,0.14,-0.05,1.24,9.87
1.25,-0.19,0.14,-0.06,1.38,9.86
0.43,0.01,0.13,0.02,1.38,9.85
0.18,0.07,0.10,-0.01,1.23,9.77
0.35,0.17,0.11,-0.02,1.09,9.77
0.67,0.28,0.14,-0.05,1.08,9.82
0.69,0.18,0.12,-0.08,1.35,9.91
0.46,0.08,0.10,-0.07,1.38,9.84
0.40,0.08,0.09,-0.00,1.33,9.78
0.56,0.15,0.10,0.01,1.32,9.74
0.75,0.08,0.07,-0.05,1.43,9.83
0.76,-0.03,0.07,-0.06,1.47,9.89
0.87,-0.10,0.07,-0.07,1.49,9.84
0.87,-0.24,0.08,-0.03,1.53,9.81
0.87,-0.32,0.08,-0.01,1.60,9.89
0.62,-0.26,0.07,-0.01,1.62,9.95
0.49,-0.19,0.07,-0.04,1.60,9.95
0.38,-0.28,0.07,-0.10,1.57,9.90
0.59,-0.36,0.05,0.01,1.65,9.93
0.54,-0.29,0.05,-0.00,1.64,9.88
0.43,-0.23,0.07,-0.03,1.61,9.83
0.46,-0.16,0.08,-0.04,1.67,9.81
0.62,-0.08,0.10,0.01,1.71,9.77
0.55,-0.03,0.12,0.06,1.73,9.74
0.59,0.10,0.16,0.03,1.82,9.74
0.60,0.19,0.20,-0.04,1.84,9.71
0.50,0.17,0.26,-0.06,1.82,9.73
0.75,0.16,0.29,-0.02,1.79,9.82
0.91,0.15,0.35,0.06,1.78,9.92
0.86,0.12,0.40,0.02,1.86,9.93
0.78,0.18,0.47,0.03,1.94,9.95
0.52,0.25,0.53,0.04,1.97,10.01
0.19,0.31,0.56,0.05,1.92,10.00
0.00,0.36,0.64,0.02,1.79,9.96
0.30,0.29,0.77,-0.03,1.69,9.93
0.36,0.16,0.83,-0.05,1.77,9.94
0.26,0.05,0.87,-0.08,1.84,9.87
0.13,-0.01,0.92,-0.03,1.86,9.85
0.05,-0.04,0.98,-0.02,1.83,9.80
0.18,0.04,1.15,0.01,1.83,9.79
0.04,0.06,1.22,-0.04,1.84,9.85
-0.07,0.04,1.28,-0.16,1.82,9.83
-0.04,-0.23,1.38,-0.11,1.67,9.88
0.15,-0.31,1.47,-0.13,1.65,9.82
0.26,-0.35,1.56,-0.14,1.67,9.75
0.20,-0.33,1.64,-0.11,1.69,9.77
0.10,-0.12,1.76,-0.14,1.64,9.72
0.20,-0.07,1.83,-0.12,1.58,9.77
0.39,-0.09,1.90,-0.07,1.64,9.80
0.54,-0.12,2.02,-0.11,1.70,9.77
0.46,-0.16,2.09,-0.14,1.74,9.74
0.42,-0.13,2.25,-0.10,1.71,9.67
0.42,-0.08,2.30,-0.08,1.69,9.69
0.56,-0.00,2.37,-0.09,1.72,9.74
0.42,-0.02,2.48,-0.09,1.78,9.92
0.33,-0.08,2.56,-0.10,1.72,9.92
0.30,-0.15,2.61,-0.18,1.65,9.84
0.41,-0.22,2.66,-0.11,1.66,9.88
0.22,-0.25,2.70,-0.10,1.71,9.83
0.11,-0.22,2.75,-0.01,1.68,9.88
0.05,-0.14,2.76,-0.09,1.67,9.80
0.10,-0.11,2.82,-0.10,1.68,9.83
0.06,-0.15,2.87,-0.06,1.70,9.91
-0.18,-0.15,2.89,-0.05,1.63,9.87
-0.18,-0.12,2.91,-0.04,1.53,9.78
0.04,-0.10,2.95,-0.03,1.52,9.73
0.13,0.08,3.03,0.07,1.66,9.76
-0.03,0.17,3.09,0.02,1.65,9.73
-0.13,0.16,3.13,-0.07,1.55,9.71
0.02,0.12,3.13,-0.13,1.46,9.79
0.43,-0.08,3.22,-0.10,1.47,9.96
0.36,-0.15,3.23,-0.05,1.49,10.04
0.18,-0.19,3.21,-0.02,1.47,10.00
0.25,-0.26,3.27,-0.08,1.42,9.82
0.61,-0.35,3.33,-0.15,1.43,9.69
0.70,-0.31,3.34,-0.02,1.78,9.83
0.19,-0.15,3.33,-0.11,1.78,9.82
-0.21,-0.05,3.24,-0.22,1.59,9.78
0.32,-0.06,3.12,-0.27,1.32,9.83
0.59,-0.11,3.11,-0.26,1.50,9.94
0.33,-0.24,3.07,-0.22,1.65,10.00
-0.15,-0.38,3.00,-0.22,1.62,9.94
-0.13,-0.32,2.89,-0.24,1.28,9.76
0.22,-0.22,2.82,-0.25,1.37,9.86
0.16,-0.16,2.77,-0.28,1.56,10.06
-0.34,-0.27,2.70,-0.32,1.62,10.11
-0.73,-0.51,2.64,-0.30,1.43,10.06
-0.07,-0.61,2.56,-0.14,1.22,9.82
0.22,-0.45,2.52,-0.11,1.42,9.76
0.04,-0.38,2.52,-0.14,1.61,9.70
-0.67,-0.28,2.39,0.02,1.37,9.66
-0.45,-0.06,2.41,0.01,1.14,9.63
0.09,0.00,2.43,-0.17,1.12,9.57
0.48,-0.17,2.39,-0.21,1.27,9.66
0.21,-0.39,2.34,0.02,1.44,9.83
0.02,-0.32,2.35,0.04,1.33,9.70
0.15,-0.20,2.38,0.09,1.20,9.72
0.42,-0.09,2.40,0.11,1.20,9.76
0.53,0.06,2.48,0.07,1.32,9.85
0.12,0.17,2.55,0.05,1.51,10.03
-0.19,0.11,2.61,0.05,1.41,10.01
-0.28,0.15,2.65,0.06,1.22,9.91
0.30,0.52,2.76,0.15,1.20,9.89
0.29,0.65,2.79,0.09,1.44,9.98
-0.11,0.68,2.83,-0.05,1.59,9.97
-0.42,0.57,2.89,-0.05,1.52,9.94
-0.41,0.47,2.99,-0.02,1.09,9.88
-0.04,0.59,3.07,-0.10,1.10,9.91
0.08,0.49,3.09,-0.20,1.22,9.97
-0.05,0.24,3.09,-0.21,1.39,10.06
-0.32,0.05,3.17,-0.23,1.39,10.06
-0.42,-0.09,3.27,-0.14,1.13,9.82
-0.06,-0.07,3.37,-0.24,1.16,9.74
0.09,-0.01,3.34,-0.28,1.36,9.78
-0.41,-0.12,3.36,-0.36,1.47,9.76
-0.58,-0.08,3.35,-0.32,1.41,9.81
-0.61,0.01,3.41,-0.24,1.25,9.84
-0.53,0.12,3.40,-0.27,1.12,9.80
-0.41,0.30,3.57,-0.20,1.09,9.90
-0.63,0.38,3.59,-0.19,1.03,9.91
-0.72,0.48,3.68,-0.12,0.88,9.93
-0.53,0.52,3.72,-0.29,0.78,9.72
-0.10,0.42,3.71,-0.34,0.84,9.58
0.43,0.16,3.81,-0.28,1.24,9.59
0.24,0.03,3.80,-0.26,1.38,9.54
0.08,-0.18,3.85,-0.31,1.33,9.44
0.54,-0.32,3.89,-0.02,1.18,9.61
0.82,-0.21,4.01,-0.20,1.26,9.69
0.66,-0.26,3.97,-0.35,1.36,9.81
0.23,-0.45,3.98,-0.25,1.36,10.13
-0.11,-0.46,3.95,-0.31,0.92,10.21
0.12,-0.49,4.02,-0.31,0.86,10.25
0.31,-0.64,3.98,-0.38,0.99,10.18
0.23,-0.70,3.99,-0.20,1.24,10.28
-0.11,-0.62,4.05,-0.16,1.33,10.18
-0.62,-0.48,4.00,-0.21,1.27,9.70
-0.44,-0.33,3.99,-0.13,1.21,9.54
-0.35,-0.13,3.98,-0.01,1.25,9.46
-0.23,0.14,3.99,-0.05,1.34,9.37
-0.41,0.41,4.02,0.13,1.13,9.34
-0.32,0.67,4.04,0.11,0.95,9.31
-0.06,0.92,4.06,-0.02,0.79,9.29
0.66,0.89,4.04,-0.21,0.85,9.54
0.82,0.68,4.02,-0.18,0.94,9.77
0.90,0.44,4.00,-0.10,1.09,9.95
0.91,0.07,4.01,-0.29,1.21,9.79
1.12,-0.58,3.96,-0.23,1.30,9.77
1.04,-0.62,3.91,-0.18,1.46,9.85
0.81,-0.65,3.89,-0.25,1.57,9.99
0.38,-0.84,3.84,-0.37,1.52,10.08
0.06,-0.99,3.78,-0.36,1.36,10.22
0.11,-0.95,3.77,-0.35,1.04,10.41
0.15,-0.94,3.76,-0.45,1.04,10.40
0.01,-0.87,3.71,-0.37,1.07,10.40
-0.38,-0.46,3.56,-0.38,0.98,10.15
-0.22,-0.37,3.49,-0.44,0.93,9.87
0.31,-0.31,3.42,-0.45,1.03,9.68
0.70,-0.27,3.34,-0.38,1.24,9.50
0.57,-0.11,3.16,-0.22,1.53,9.24
0.41,0.09,3.08,-0.16,1.40,9.14
0.50,0.31,3.00,-0.20,1.21,9.10
0.87,0.40,2.89,-0.25,1.08,9.18
1.31,0.30,2.81,-0.30,1.08,9.46
1.17,-0.18,2.73,-0.22,1.10,10.11
0.92,-0.56,2.70,-0.25,0.93,10.11
1.15,-0.88,2.67,-0.22,0.72,10.01
2.19,-0.91,2.62,-0.15,1.11,9.81
2.19,-0.92,2.66,-0.15,1.59,9.83
1.52,-1.04,2.62,-0.02,1.83,9.86
0.87,-0.95,2.61,0.17,1.76,9.82
0.60,-0.17,2.78,0.04,1.41,9.52
0.60,0.15,2.77,-0.05,1.48,9.57
0.42,0.38,2.82,0.11,1.58,9.99
-0.14,0.60,2.85,0.12,1.51,10.27
-0.71,0.66,2.91,-0.04,1.24,10.22
-0.38,0.37,3.06,0.00,0.78,10.14
-0.06,0.47,3.09,0.01,0.98,10.11
-0.12,0.48,3.12,-0.03,1.27,10.03
-0.90,-0.05,3.15,-0.22,1.41,9.72
-0.74,-0.16,3.16,0.03,1.32,9.75
-0.38,-0.04,3.17,0.03,1.34,9.69
-0.14,0.02,3.18,-0.27,1.46,9.51
-0.48,-0.04,3.10,-0.17,1.43,9.92
-0.57,0.09,3.11,-0.04,1.26,10.17
-0.37,0.15,3.20,-0.17,1.04,10.27
-0.01,0.02,3.18,-0.40,0.84,10.26
0.32,-0.20,3.14,-0.35,0.78,10.29
0.69,0.14,3.06,-0.23,1.02,10.33
0.68,0.21,3.06,-0.31,1.20,10.15
0.68,0.11,3.06,-0.22,1.29,10.04
0.77,0.29,3.03,-0.03,1.36,9.61
0.93,0.59,2.96,-0.15,1.45,9.41
0.82,0.78,2.81,-0.32,1.61,9.26
0.54,0.81,2.69,-0.33,1.69,9.36
0.02,0.39,2.54,-0.10,1.42,9.71
-0.09,0.20,2.54,-0.23,1.18,9.72
-0.01,-0.16,2.48,-0.48,0.96,9.54
0.31,-0.61,2.36,-0.41,0.90,9.66
0.56,-0.91,2.27,-0.30,1.06,9.82
0.06,-1.15,2.12,-0.23,1.46,9.89
-0.44,-1.38,2.03,-0.28,1.42,9.69
-0.37,-1.41,1.99,-0.32,1.34,9.41
0.16,-0.86,1.88,-0.10,1.58,9.37
-0.16,-0.60,1.79,-0.14,1.79,9.37
-0.86,-0.34,1.70,-0.10,1.70,9.45
-1.25,-0.09,1.61,-0.15,1.31,9.38
-0.16,0.38,1.51,-0.10,0.80,9.74
0.47,0.32,1.51,-0.27,0.95,9.90
0.59,0.02,1.54,-0.11,1.13,10.26
0.36,-0.14,1.50,0.04,1.18,10.36
0.24,-0.15,1.49,-0.08,1.11,10.05
0.97,0.12,1.48,-0.03,1.18,9.92
0.94,0.28,1.45,0.01,1.46,10.03
0.58,0.26,1.41,-0.03,1.64,10.10
0.21,-0.08,1.29,-0.01,1.53,10.02
0.13,0.01,1.25,0.02,1.46,10.02
0.04,0.13,1.23,-0.10,1.45,10.05
-0.21,0.01,1.19,-0.06,1.44,10.27
-0.93,-0.08,1.05,-0.08,1.21,10.46
-1.00,-0.21,1.01,-0.26,1.08,10.21
-0.82,-0.38,0.94,-0.20,1.02,10.16
-0.77,-0.43,0.84,0.07,1.10,10.19
-0.78,-0.17,0.84,0.05,1.26,10.05
-1.10,-0.07,0.73,-0.08,1.35,9.66
-0.97,0.02,0.67,-0.02,1.29,9.58
-0.76,0.29,0.64,0.01,1.23,9.56
-0.18,0.34,0.48,-0.20,1.36,9.54
-0.26,0.12,0.40,-0.06,1.37,9.76
-0.44,0.06,0.35,-0.13,1.26,9.79
-0.53,-0.04,0.32,-0.23,1.00,9.74
0.36,-0.44,0.18,-0.13,0.84,10.02
0.75,-0.59,0.20,-0.24,1.07,10.08
0.70,-0.90,0.15,-0.24,1.30,10.07
0.47,-1.21,0.08,-0.17,1.41,9.91
0.36,-1.26,0.08,-0.06,1.37,9.57
0.69,-0.52,0.08,0.24,1.24,9.11
0.98,-0.01,0.09,0.24,1.39,9.13
0.82,0.42,0.04,0.20,1.59,9.32
0.43,0.69,0.04,0.09,1.63,9.43
0.00,0.82,-0.04,0.10,1.15,9.77
0.24,0.94,-0.03,0.03,0.94,9.84
0.54,0.83,-0.00,-0.05,0.91,9.94
0.69,0.26,-0.09,0.04,1.28,10.36
0.33,-0.07,-0.11,0.00,1.39,10.34
-0.03,-0.43,-0.12,0.01,1.33,10.25
-0.17,-0.70,-0.11,0.04,1.19,10.15
0.09,-0.90,-0.08,-0.00,1.16,10.11
0.37,-1.21,-0.08,0.05,1.57,10.28
-0.17,-1.35,-0.09,-0.04,1.66,10.21
-0.77,-1.34,-0.03,-0.00,1.47,10.13
-0.95,-1.18,0.00,0.06,1.09,10.00
0.14,-0.85,0.06,-0.13,0.95,9.75
0.31,-0.80,0.06,-0.05,1.23,9.84
-0.04,-0.72,0.05,-0.06,1.43,9.72
-0.52,-0.30,0.15,0.09,1.08,9.07
0.04,0.02,0.18,-0.05,0.93,8.54
0.84,0.33,0.12,0.11,1.06,8.49
1.33,0.76,0.09,0.24,1.41,8.63
1.09,1.08,0.11,0.10,1.70,8.55
0.00,1.38,0.15,0.18,1.39,8.98
0.14,1.46,0.14,0.21,1.01,9.26
0.81,1.52,0.17,0.08,0.91,9.69
1.28,1.27,0.20,-0.37,1.08,10.04
0.83,-0.53,0.06,-0.22,1.28,10.63
0.68,-1.05,0.10,-0.00,1.10,10.50
0.96,-1.03,0.14,0.06,0.98,10.09
1.48,-0.46,0.19,0.17,1.28,9.81
1.24,0.16,0.22,0.23,1.56,10.01
0.56,0.70,0.22,0.23,1.60,10.17
0.03,0.96,0.22,0.08,1.44,10.11
0.65,1.16,0.30,0.03,1.12,9.95
0.86,1.31,0.37,0.17,1.23,10.01
0.75,1.67,0.36,0.24,1.39,10.04
0.26,1.95,0.38,0.16,1.45,10.06
-0.42,2.13,0.40,0.20,1.34,10.35
-0.82,1.70,0.32,-0.27,0.98,10.64
-0.44,1.05,0.31,-0.29,1.02,10.89
-0.25,0.30,0.32,-0.43,1.33,10.77
-1.17,-1.30,0.29,-0.22,1.50,10.44
-1.65,-1.64,0.28,-0.05,1.25,10.15
-1.46,-1.64,0.26,-0.10,1.02,9.74
-0.82,-1.54,0.32,-0.23,1.06,9.55
-0.75,-1.54,0.28,-0.28,1.60,9.86
-1.44,-1.41,0.25,-0.31,1.51,9.90
-1.86,-1.37,0.21,-0.31,1.07,9.64
-1.43,-1.41,0.18,-0.31,0.69,9.32
-0.41,-1.16,0.21,-0.08,0.62,9.41
0.29,-0.48,0.19,-0.27,1.42,9.32
-0.32,-0.41,0.20,-0.13,1.56,9.52
-0.95,-0.29,0.11,-0.02,1.38,9.51
-0.36,0.30,0.15,0.12,0.81,9.50
0.41,0.32,0.09,-0.18,0.98,9.43
0.78,0.27,0.06,-0.19,1.41,9.85
-0.02,-0.14,0.06,-0.02,1.68,10.16
-1.15,-0.94,-0.09,0.08,0.92,10.18
-0.59,-1.13,-0.03,0.03,0.59,9.81
0.55,-1.35,0.05,-0.24,0.69,9.70
1.10,-1.58,0.03,0.05,1.15,10.11
0.67,-1.60,-0.03,0.16,1.59,10.20
-0.79,-1.40,0.03,0.01,1.12,9.62
-0.16,-1.19,-0.06,0.10,0.68,9.24
1.03,-0.81,-0.04,0.36,0.75,9.22
1.52,0.16,-0.07,-0.00,1.54,9.23
0.86,0.19,-0.07,0.02,1.66,9.27
0.51,0.22,-0.10,0.37,1.35,9.39
0.55,0.63,-0.06,0.45,0.92,9.38
1.83,1.54,-0.03,0.23,0.87,9.43
1.91,1.59,-0.09,0.01,1.25,9.66
1.56,1.67,-0.14,0.17,1.55,10.07
0.81,1.61,-0.15,0.23,1.65,10.26
0.14,1.34,-0.04,0.22,1.46,10.27
0.10,1.06,0.02,0.23,0.96,10.17
0.48,1.14,0.04,0.09,1.12,10.21
0.27,0.96,0.01,-0.02,1.46,10.41
-1.11,0.01,-0.01,0.02,1.44,10.60
-1.31,-0.38,0.05,0.01,1.06,10.35
-0.73,-0.65,0.10,-0.05,0.72,9.86
0.11,-0.69,0.18,0.11,0.74,9.82
0.39,-0.11,0.14,-0.24,1.45,9.70
-0.24,-0.18,0.10,-0.18,1.53,9.88
-0.67,-0.23,0.03,-0.16,1.25,9.80
-0.58,-0.27,0.02,-0.31,0.89,9.46
0.34,-0.31,0.07,-0.26,0.70,9.30
1.53,-0.43,0.00,-0.20,1.40,9.42
0.95,-0.37,-0.03,-0.13,1.68,9.61
-0.04,-0.42,-0.11,-0.27,1.59,9.56
-0.20,-0.78,-0.28,-0.30,0.96,9.55
0.20,-0.95,-0.27,-0.30,0.91,9.61
0.56,-1.13,-0.27,-0.34,1.12,9.65
0.39,-1.50,-0.33,-0.30,1.37,9.58
-0.60,-1.69,-0.45,-0.00,1.52,9.51
-1.04,-1.39,-0.53,-0.00,1.39,9.33
-1.09,-0.99,-0.54,0.02,1.23,9.43
-1.19,-0.71,-0.59,-0.04,1.19,9.63
-1.25,-0.64,-0.66,-0.08,1.28,9.85
-1.32,-0.89,-0.66,-0.21,1.33,10.05
-1.47,-1.12,-0.64,-0.09,1.26,9.96
-1.75,-0.98,-0.69,0.31,1.03,10.16
-1.33,-0.09,-0.67,0.38,0.93,10.17
-1.01,0.09,-0.72,0.18,1.21,10.38
-1.24,-0.08,-0.73,0.11,1.46,10.50
-1.93,-0.23,-0.70,0.33,1.34,10.71
-1.96,0.01,-0.76,0.22,0.69,10.09
-1.01,-0.05,-0.70,0.37,0.67,10.14
-0.32,-0.04,-0.71,0.31,1.04,10.20
-0.41,-0.02,-0.73,0.26,1.51,10.23
-2.02,-0.06,-0.72,0.44,1.27,10.29
-1.99,0.25,-0.75,0.28,0.90,9.99
-1.47,0.51,-0.57,0.31,0.65,10.03
-0.84,0.52,-0.74,0.12,0.92,9.92
-0.66,0.29,-0.68,0.26,1.36,10.09
-1.97,0.44,-0.77,0.22,1.43,9.66
-2.23,0.52,-0.72,0.27,1.05,9.39
-1.72,0.72,-0.77,0.38,0.73,9.25
-0.41,1.30,-0.71,0.25,1.11,9.53
-0.68,1.29,-0.77,0.06,1.42,9.74
-1.28,1.04,-0.79,-0.03,1.42,9.77
-1.49,0.80,-0.83,0.20,1.08,9.72
-0.27,0.58,-0.79,-0.05,0.67,9.11
0.44,0.58,-0.84,0.18,1.11,9.39
0.07,0.64,-0.83,0.16,1.56,9.69
-1.22,0.48,-0.96,-0.07,1.67,9.66
-2.13,0.13,-0.96,-0.13,1.34,9.70
-1.27,-0.67,-0.94,-0.12,0.72,9.50
-0.67,-0.79,-0.88,-0.05,0.97,9.55
-0.67,-0.96,-0.95,-0.30,1.31,9.26
-1.49,-1.27,-0.95,0.13,1.45,8.96
-1.85,-0.77,-0.99,0.28,1.13,8.76
-1.77,0.05,-0.98,0.25,0.85,8.49
-1.14,0.75,-0.92,0.18,0.65,8.39
-0.08,1.17,-0.95,-0.09,0.75,8.42
0.52,1.31,-1.04,0.15,1.38,9.13
0.08,1.26,-1.08,0.16,1.22,9.19
0.13,1.17,-1.10,-0.11,0.81,8.83
1.16,1.08,-1.06,0.09,0.53,8.90
2.69,1.30,-1.05,0.25,1.36,9.92
1.84,1.33,-1.04,-0.06,1.66,10.33
0.77,1.00,-1.13,-0.09,1.58,10.71
0.53,-0.07,-1.12,-0.10,0.95,10.92
0.99,-0.20,-1.04,0.25,1.09,11.18
0.58,-0.30,-0.94,0.22,1.39,11.14
-0.50,-0.41,-0.98,0.07,1.49,10.94
-1.28,-0.31,-1.01,0.14,1.36,10.98
-1.85,0.12,-0.99,0.17,1.08,11.14
-2.08,-0.11,-0.89,-0.05,1.12,10.79
-1.96,-0.82,-0.84,-0.30,0.92,9.89
-1.39,-1.12,-0.83,0.37,0.76,9.80
-0.55,0.60,-0.75,0.38,1.30,9.01
-1.08,1.10,-0.65,0.43,1.44,9.17
-1.61,1.45,-0.71,0.42,1.27,9.30
-1.23,2.26,-0.61,0.51,0.58,9.88
-0.23,2.12,-0.59,-0.13,0.51,9.86
0.50,1.42,-0.67,-0.21,0.83,10.06
0.73,0.85,-0.66,0.12,1.14,10.37
0.41,0.57,-0.70,0.10,1.27,10.10
-0.14,0.36,-0.69,0.22,1.08,9.50
-0.06,0.30,-0.78,0.12,1.06,9.22
0.02,0.32,-0.74,0.07,1.06,9.17
0.09,0.27,-0.77,-0.07,1.07,9.04
0.24,-0.05,-0.75,-0.07,1.25,9.18
0.11,-0.30,-0.90,-0.37,1.12,8.79
0.46,-0.72,-0.92,-0.20,0.90,8.57
2.07,-0.41,-0.99,-0.08,0.91,8.54
2.32,0.08,-0.94,0.26,1.17,8.95
2.14,0.55,-0.95,0.15,1.29,9.39
1.56,0.80,-0.97,-0.26,1.26,9.46
2.06,1.16,-1.14,-0.16,0.76,10.30
2.61,1.01,-1.10,-0.34,0.97,10.42
2.44,0.60,-1.09,-0.09,1.22,10.86
1.95,0.34,-1.17,-0.11,1.43,10.74
1.47,0.16,-1.08,0.02,1.41,10.50
0.73,0.33,-1.09,0.04,1.44,10.58
-0.05,0.27,-1.06,-0.02,1.33,10.73
-0.64,-0.06,-1.11,-0.02,1.09,10.90
0.16,-1.03,-1.01,-0.11,1.00,10.68
0.21,-1.60,-0.97,-0.02,1.26,10.41
-0.12,-1.87,-0.95,0.04,1.33,10.06
-0.68,-1.73,-0.98,0.23,1.14,9.64
-0.13,-0.45,-0.96,0.46,0.71,9.24
0.75,0.06,-0.85,0.12,1.05,9.10
0.84,0.12,-0.87,0.12,1.47,9.51
0.10,0.08,-0.96,0.23,1.59,9.71
-0.73,0.04,-0.92,-0.00,1.13,9.40
0.84,0.11,-0.93,0.40,0.35,9.23
2.11,0.25,-0.86,0.36,0.60,9.20
2.64,0.53,-0.75,0.31,1.14,9.44
1.20,0.74,-0.85,0.09,1.51,9.79
0.66,0.74,-0.87,0.12,1.06,9.93
1.16,0.74,-0.96,0.08,0.65,9.83
2.09,0.37,-0.91,-0.03,0.62,9.53
3.01,0.17,-0.90,0.20,1.48,9.64
1.79,0.24,-0.90,0.15,1.67,9.55
0.86,0.45,-1.04,0.32,1.48,9.66
0.56,0.59,-1.04,0.15,1.07,9.63
0.89,0.89,-1.08,0.11,0.78,9.95
0.86,0.93,-1.06,-0.29,1.33,11.11
0.12,0.14,-1.15,-0.43,1.44,11.39
-0.66,-0.71,-1.17,-0.26,1.29,11.35
-0.82,-0.64,-1.24,0.19,0.93,10.69
-0.88,-0.14,-1.20,0.24,1.10,10.60
-1.23,0.24,-1.25,0.06,1.34,10.48
-1.83,0.20,-1.28,-0.05,1.45,10.39
-2.19,-0.31,-1.28,-0.11,1.01,10.09
-1.92,-0.52,-1.29,-0.08,0.82,9.82
-1.42,-0.76,-1.31,0.01,0.69,9.52
-0.81,-0.90,-1.30,0.15,0.79,9.43
-0.46,-0.88,-1.22,0.07,1.01,9.26
-0.57,-0.72,-1.30,0.26,1.10,9.14
-0.52,-0.67,-1.24,-0.01,0.89,8.87
-0.25,-0.59,-1.33,0.13,0.65,8.99
0.97,-0.49,-1.20,0.08,0.73,9.05
1.64,-0.62,-1.20,0.16,1.09,9.11
1.80,-0.62,-1.07,0.17,1.40,9.09
1.02,-0.50,-1.10,0.25,1.39,9.03
0.58,0.52,-1.16,0.19,1.00,9.03
0.55,0.71,-1.26,0.22,0.89,9.47
0.82,0.81,-1.23,0.23,1.02,10.12
0.98,0.60,-1.11,0.04,1.09,10.60
0.60,0.14,-1.12,-0.12,1.17,10.94
-0.13,-0.91,-1.15,-0.15,0.87,10.81
-0.02,-0.85,-1.24,0.06,0.67,10.65
0.48,-0.76,-1.27,0.23,0.68,10.36
0.80,-0.18,-1.17,0.31,1.23,10.38
-0.00,0.00,-1.22,0.20,1.37,10.27
-0.53,0.30,-1.25,0.19,1.15,10.21
-0.35,0.48,-1.32,0.10,0.72,10.02
0.90,0.55,-1.38,0.10,0.96,10.16
0.63,0.06,-1.49,-0.12,1.32,10.01
0.04,-0.41,-1.41,0.09,1.31,10.04
-0.53,-0.52,-1.49,0.36,0.94,9.98
-0.44,-0.38,-1.48,0.07,0.64,9.45
1.54,-0.56,-1.42,0.28,0.75,9.48
1.82,-0.47,-1.41,0.11,1.26,9.48
0.99,-0.41,-1.43,0.31,1.41,9.54
0.41,-0.34,-1.55,0.24,0.67,8.95
1.41,-0.24,-1.51,0.60,0.50,9.12
2.49,0.24,-1.39,0.42,0.82,9.26
2.42,0.23,-1.39,0.12,1.29,9.30
0.98,-0.24,-1.56,0.14,1.30,9.62
0.58,-0.29,-1.58,0.27,0.87,9.60
1.24,-0.18,-1.50,0.19,0.70,9.53
1.62,-0.29,-1.41,0.26,0.81,9.64
1.57,-0.39,-1.44,0.26,1.08,9.71
0.80,0.20,-1.39,0.21,1.24,9.62
0.49,0.33,-1.54,-0.04,1.09,9.37
0.71,0.33,-1.51,-0.01,0.86,9.34
0.95,0.95,-1.53,0.42,0.92,10.30
0.94,0.82,-1.47,-0.15,1.04,10.27
0.79,0.26,-1.48,-0.22,1.10,10.61
0.47,-0.08,-1.60,-0.03,1.05,10.97
-0.41,-0.21,-1.72,-0.06,0.64,10.88
0.08,-0.39,-1.80,-0.16,0.65,10.86
-0.01,-0.92,-1.77,0.14,0.87,11.02
-0.26,-1.08,-1.67,0.31,1.14,11.21
-1.83,-1.24,-1.66,0.03,1.17,10.65
-2.08,-1.37,-1.73,0.10,0.75,10.46
-1.52,-1.29,-1.68,-0.13,0.63,9.93
-0.41,-1.44,-1.58,-0.02,0.79,9.56
-0.89,-0.92,-1.61,0.65,1.43,9.81
-2.04,-0.30,-1.57,0.23,1.25,9.21
-2.62,0.04,-1.58,0.30,0.75,9.34
-2.13,0.10,-1.69,0.34,0.44,9.44
-0.68,0.16,-1.62,0.15,0.70,9.92
-0.96,-0.45,-1.57,-0.02,0.80,9.66
-1.07,-1.15,-1.62,0.04,0.77,9.35
-0.44,-0.97,-1.62,0.57,0.72,9.32
-0.28,0.13,-1.62,0.28,1.14,8.92
-0.59,0.24,-1.66,0.08,1.26,8.97
-1.02,0.14,-1.69,0.48,1.05,9.34
-1.14,0.29,-1.71,0.56,0.77,9.34
-0.38,0.42,-1.57,0.18,0.57,9.09
0.40,0.09,-1.67,0.36,0.64,9.24
0.39,0.57,-1.74,0.56,0.69,9.46
0.31,1.28,-1.73,0.37,0.72,9.58
0.46,1.30,-1.79,0.07,0.87,10.25
0.40,0.94,-1.79,0.12,0.96,10.56
0.11,0.65,-1.71,0.28,0.86,10.64
0.18,0.56,-1.68,0.13,0.76,10.41
0.40,0.48,-1.72,0.36,1.14,10.38
-0.20,0.47,-1.69,0.28,1.28,10.49
-1.02,0.29,-1.70,0.05,1.17,10.50
-1.27,-0.28,-1.64,-0.05,0.89,10.47
-1.20,-1.00,-1.57,-0.07,0.55,10.49
-0.32,-1.81,-1.44,-0.01,0.56,10.18
-0.43,-2.04,-1.42,0.14,0.66,10.18
-0.59,-2.11,-1.48,0.02,0.72,9.74
0.36,-2.03,-1.34,0.34,0.70,9.13
0.57,-1.72,-1.31,0.37,0.76,8.85
0.70,-1.18,-1.22,0.17,0.77,8.44
0.89,-0.69,-1.20,0.32,0.75,8.41
1.67,0.20,-1.21,0.27,0.99,8.66
1.59,0.43,-1.20,0.10,1.17,8.88
1.16,0.53,-1.24,0.22,1.19,9.22
0.55,0.53,-1.25,0.24,0.92,9.37
0.54,0.59,-1.31,0.03,0.56,9.29
2.13,0.38,-1.24,0.45,0.74,9.58
2.09,0.61,-1.27,0.38,1.13,9.77
1.40,0.94,-1.29,0.25,1.31,9.78
0.15,1.23,-1.36,0.41,0.83,9.90
0.58,1.63,-1.35,0.35,0.67,10.00
0.77,1.95,-1.35,0.57,0.74,10.51
0.72,2.00,-1.35,0.34,1.04,10.83
-0.42,1.09,-1.26,0.21,1.20,11.40
-0.74,0.71,-1.26,0.09,0.99,11.26
-0.94,0.28,-1.13,0.21,0.78,11.09
-1.07,0.05,-1.06,0.34,0.63,11.05
-0.70,0.01,-1.01,0.08,0.70,10.63
-0.56,-0.57,-0.80,0.25,1.10,10.65
-1.23,-0.51,-0.73,0.22,1.25,10.65
-2.00,-0.61,-0.59,0.01,0.95,10.33
-0.97,-1.33,-0.39,0.06,0.45,9.83
0.04,-1.21,-0.28,0.00,0.66,9.75
0.00,-1.11,-0.21,-0.09,1.03,9.50
-0.50,-1.12,-0.07,0.05,1.22,9.43
-0.89,-0.30,0.08,0.18,0.71,9.02
-0.19,0.42,0.21,0.21,0.52,8.96
0.50,0.90,0.30,0.13,0.62,9.02
0.63,1.10,0.39,-0.08,0.88,9.04
0.36,1.26,0.40,-0.06,0.93,9.08
1.01,1.35,0.62,0.12,0.55,8.71
1.74,1.72,0.67,0.20,0.64,8.79
1.94,2.10,0.75,0.20,0.94,8.93
1.41,2.41,0.75,0.06,0.96,9.47
1.41,2.27,0.91,0.02,0.97,9.71
1.61,1.89,1.01,-0.18,0.80,9.83
1.81,1.44,1.00,-0.06,0.80,10.22
1.52,1.04,1.19,-0.25,1.08,10.36
0.75,0.67,1.24,-0.32,1.11,10.48
0.04,0.30,1.33,-0.10,1.04,10.96
-0.02,0.21,1.32,-0.16,1.06,11.30
-0.45,-0.24,1.55,-0.59,1.05,11.17
-1.15,-1.51,1.51,-0.46,0.93,11.00
-1.17,-1.71,1.64,-0.24,0.86,10.75
-1.18,-1.60,1.59,-0.35,0.83,10.16
-0.89,-1.47,1.61,-0.44,0.92,9.63
-1.03,-0.90,1.60,-0.17,0.94,9.17
-0.88,-0.20,1.60,0.02,0.85,9.21
-0.82,0.25,1.58,-0.31,0.70,8.97
0.16,0.03,1.49,-0.36,0.63,8.95
0.50,0.07,1.41,-0.27,0.63,9.09
0.60,0.20,1.33,-0.37,0.71,8.92
0.91,0.26,1.30,-0.31,0.77,9.03
1.05,0.12,1.23,-0.45,0.77,8.94
1.48,0.10,1.13,-0.08,0.79,9.40
1.39,0.44,1.05,-0.00,0.82,9.75
1.19,0.74,0.94,-0.34,0.91,9.95
1.21,0.11,0.81,-0.29,0.95,10.50
1.16,0.10,0.78,-0.04,1.11,10.82
0.47,0.42,0.83,0.06,1.15,11.02
-0.77,0.53,0.73,-0.04,0.92,10.97
-0.22,-0.05,0.74,-0.34,0.57,10.76
-0.05,-0.26,0.66,-0.05,0.81,11.19
-0.39,-0.50,0.68,-0.28,1.26,10.96
-1.14,-1.47,0.77,-0.58,1.19,10.31
-1.39,-2.07,0.72,0.23,0.22,9.97
-0.26,-1.69,0.88,-0.31,0.19,9.41
0.66,-1.94,0.90,-0.27,0.61,9.61
0.73,-2.43,0.83,-0.20,1.15,9.86
-0.71,-2.34,0.84,0.02,0.81,9.30
-0.52,-1.88,0.94,0.07,0.38,8.97
0.57,-1.43,0.95,-0.14,0.29,8.62
1.77,-1.00,0.96,0.05,0.44,8.72
1.98,0.02,0.93,-0.27,1.19,8.92
1.53,0.03,0.91,-0.20,1.23,9.03
1.05,0.01,0.86,0.00,0.84,9.14
1.18,0.12,0.79,-0.09,0.48,8.78
2.31,0.28,0.97,0.00,0.39,8.92
2.68,-0.00,0.82,-0.23,1.26,9.67
1.78,-0.35,0.90,-0.31,1.40,10.07
0.84,-0.70,0.84,-0.28,1.08,10.14
0.72,-0.91,0.78,-0.18,0.77,10.22
1.15,-0.70,0.81,0.06,0.84,10.69
0.88,-0.73,0.90,-0.13,1.25,10.71
-0.03,-0.77,0.89,0.03,1.34,10.92
-1.61,-0.16,0.96,0.16,0.94,10.74
-1.78,0.28,0.90,0.14,0.68,10.83
-1.59,0.66,0.91,0.03,0.71,10.86
-1.68,0.61,0.95,-0.05,0.84,11.01
-2.42,-0.14,0.97,-0.07,1.09,10.98
-3.02,-0.45,0.90,0.02,0.91,10.84
-3.14,-0.53,0.91,-0.06,0.59,10.32
-2.62,-0.87,1.04,-0.23,0.36,9.81
-1.67,-1.08,0.99,-0.20,0.52,9.77
-1.74,-1.12,1.00,-0.02,1.35,9.73
-2.73,-1.10,0.96,-0.31,1.15,9.35
-3.43,-1.04,0.79,-0.18,0.60,9.00
-1.28,0.02,0.86,0.01,0.34,8.65
-0.53,0.28,0.89,-0.26,0.68,8.66
-0.44,0.17,0.83,-0.24,1.00,8.79
-0.82,0.10,0.80,-0.03,1.08,8.98
-1.03,0.70,0.65,-0.30,0.31,8.48
0.22,0.83,0.64,-0.24,0.27,8.63
1.18,0.76,0.61,-0.08,0.47,9.14
1.53,0.78,0.56,0.09,0.94,9.78
1.43,0.85,0.68,-0.04,1.21,10.22
-0.19,-0.39,0.61,-0.53,0.84,10.11
0.11,-0.68,0.59,-0.09,0.56,10.32
0.79,-0.54,0.58,0.16,0.64,10.32
0.02,-0.47,0.77,-0.03,1.26,10.41
-1.13,-0.46,0.76,0.19,1.18,10.67
-1.65,-0.16,0.81,0.15,0.84,10.74
-1.69,-0.03,0.81,-0.18,0.66,10.32
-1.11,-0.79,0.77,-0.28,0.94,9.83
-1.62,-1.03,0.76,0.16,1.08,9.82
-2.09,-0.68,0.79,0.37,1.02,9.66
-2.54,-0.40,0.83,-0.05,0.82,9.00
-2.45,-0.26,0.83,-0.25,0.62,8.64
-1.34,0.11,0.71,-0.01,0.55,8.65
-0.65,0.28,0.76,-0.03,0.68,8.53
-0.28,0.31,0.70,-0.12,0.69,8.41
0.29,0.68,0.59,0.30,0.53,8.32
0.89,1.49,0.54,0.43,0.55,8.70
1.16,2.18,0.51,-0.06,0.76,8.86
1.25,2.19,0.46,-0.31,0.83,9.27
1.09,2.11,0.31,0.17,0.82,10.97
0.97,1.94,0.23,-0.45,0.78,10.80
1.25,1.02,0.23,-0.66,0.70,10.80
1.29,0.09,0.12,-0.19,0.72,11.01
1.12,-0.11,0.08,0.45,0.89,11.20
0.32,0.53,0.23,-0.28,0.99,10.82
-0.25,-0.09,0.12,-0.38,0.85,10.92
-0.20,-0.59,0.11,-0.19,0.72,10.99
-0.12,-0.95,0.06,-0.07,0.75,10.41
-0.37,-1.09,0.09,0.03,0.77,9.96
-0.77,-0.94,0.09,0.18,0.70,9.79
-1.04,-0.28,0.05,0.34,0.55,9.54
-0.66,0.21,0.08,-0.40,0.34,8.91
-0.58,0.14,-0.05,-0.15,0.30,9.14
-0.45,0.19,-0.17,0.13,0.17,9.18
-0.21,0.31,-0.10,-0.12,0.18,8.76
0.13,0.27,-0.11,-0.19,0.11,8.64
1.10,0.26,-0.28,0.11,0.00,8.65
1.66,0.74,-0.28,0.30,0.12,9.14
1.83,0.99,-0.33,-0.12,0.37,9.20
1.48,0.16,-0.44,-0.09,0.35,9.90
1.45,0.04,-0.56,-0.03,0.30,10.10
1.71,-0.07,-0.53,-0.25,0.24,10.02
1.81,-0.66,-0.54,-0.14,0.24,10.05
1.45,-0.61,-0.45,0.38,0.62,10.67
0.78,-0.26,-0.34,0.25,0.72,10.81
0.06,-0.35,-0.28,-0.18,0.61,10.80
-0.57,-0.77,-0.37,-0.25,0.28,10.78
-0.34,-1.08,-0.40,0.17,0.06,10.86
0.36,-0.40,-0.14,0.34,0.58,10.96
-0.49,-0.55,-0.09,-0.05,0.95,10.63
-1.33,-0.96,-0.08,-0.24,0.73,10.35
-0.79,-1.41,-0.14,0.23,-0.19,9.68
0.65,-1.21,-0.08,0.22,-0.06,9.39
1.25,-1.32,0.05,-0.02,0.42,9.03
0.94,-1.29,0.08,0.10,0.77,9.09
-0.11,-0.11,-0.00,0.40,0.35,8.85
0.44,0.82,0.02,0.33,0.03,8.93
1.26,1.35,-0.00,0.09,-0.01,9.12
1.96,1.44,-0.03,-0.06,0.24,9.52
2.00,1.30,-0.04,-0.01,0.55,10.01
1.45,0.83,-0.16,-0.12,0.74,10.00
1.09,0.71,-0.16,0.19,0.63,10.23
0.89,0.72,-0.25,0.12,0.61,10.11
0.53,0.54,-0.09,0.29,0.87,10.55
-0.26,0.63,-0.14,-0.08,0.91,10.63
-0.89,0.32,-0.23,-0.27,0.83,10.66
-1.47,-0.62,-0.20,-0.26,0.64,10.67
-1.02,-1.74,-0.09,0.23,0.49,10.39
-1.00,-1.51,-0.01,0.33,0.52,10.16
-1.19,-1.30,-0.05,-0.21,0.64,9.55
-1.50,-1.35,-0.07,-0.25,0.55,9.38
-0.87,-0.99,-0.17,0.29,0.28,9.86
-0.42,-0.72,0.01,-0.06,0.37,9.79
-0.28,-1.11,-0.01,-0.54,0.53,9.41
-0.22,-1.57,-0.10,-0.24,0.46,9.43
0.56,-0.82,-0.12,-0.12,0.29,9.06
1.07,-0.51,-0.07,-0.03,0.45,9.24
1.04,-0.52,-0.19,0.25,0.66,9.62
0.66,-0.37,-0.23,0.12,0.79,9.61
0.45,0.44,-0.16,0.05,0.39,9.71
0.76,0.71,-0.27,0.09,0.49,9.85
1.09,1.13,-0.17,0.24,0.74,10.24
0.33,1.31,-0.11,0.36,0.93,10.46
-1.05,1.32,-0.11,0.40,0.78,10.40
-1.26,1.44,-0.09,0.22,0.51,10.26
-1.24,1.38,0.02,-0.01,0.58,9.89
-0.96,0.91,0.08,0.19,0.70,10.00
-0.98,0.35,0.07,0.35,0.78,9.84
-1.47,0.24,0.36,0.36,0.50,9.09
-0.99,0.39,0.40,0.23,0.52,9.04
-0.73,0.47,0.36,0.13,0.49,9.35
-0.66,-0.06,0.65,0.07,0.41,9.75
-0.32,-0.18,0.68,-0.11,0.39,9.76
0.20,-0.37,0.67,-0.17,0.38,9.72
0.24,-0.68,0.69,-0.29,0.54,9.78
0.07,-0.82,0.61,-0.63,0.77,9.56
-0.22,-1.31,0.53,0.25,0.35,10.00
0.05,-0.75,0.53,0.20,0.21,9.91
0.86,-0.30,0.62,-0.39,0.37,9.46
1.47,-0.38,0.56,-0.57,0.50,9.64
1.24,-0.60,0.27,-0.27,0.98,10.01
0.63,-0.08,0.22,0.32,0.81,10.39
0.25,0.18,0.21,-0.08,0.41,9.88
2.13,-0.12,0.17,-0.12,0.53,9.72
2.34,-0.04,0.14,-0.15,0.96,9.95
1.56,0.20,0.06,-0.04,1.11,10.20
0.41,-0.02,-0.01,-0.03,0.88,10.18
1.02,-0.54,0.05,0.21,0.15,9.89
2.10,-0.38,0.11,0.28,0.29,9.93
2.51,0.04,0.10,0.05,0.92,10.05
1.48,-0.13,0.05,-0.05,1.24,10.18
0.32,-0.69,0.06,-0.09,1.08,10.21
0.68,-0.82,0.09,0.22,0.19,9.90
1.70,-0.78,0.21,0.09,0.41,9.65
1.98,-0.69,0.24,-0.07,0.94,9.71
0.01,-0.72,0.12,0.05,1.05,9.40
-0.04,-0.46,0.15,0.23,0.55,9.02
0.63,-0.14,0.14,0.07,0.29,8.64
1.52,0.22,0.08,0.10,0.42,8.58
1.33,1.19,0.09,0.45,1.00,9.46
0.47,1.84,0.09,0.14,1.11,9.76
-0.16,1.75,0.08,-0.22,0.94,9.97
-0.33,1.26,0.03,-0.00,0.71,10.64
-0.16,1.09,0.01,0.03,0.48,10.80
0.26,0.42,0.18,0.24,0.84,10.76
-0.19,0.54,0.12,0.45,1.09,10.96
-0.88,0.61,0.11,-0.08,1.20,10.68
-2.26,0.29,0.14,0.35,0.78,11.25
-2.50,0.16,0.19,0.09,0.46,11.18
-2.46,0.01,0.30,-0.17,0.29,11.04
-1.80,-0.31,0.27,-0.16,0.46,11.15
-1.94,-1.40,0.24,-0.07,0.87,10.47
-2.30,-0.98,0.21,-0.14,0.86,10.07
-2.46,-0.80,0.28,0.04,0.45,9.76
-1.97,-0.97,0.21,-0.05,0.19,9.40
-1.00,-1.08,0.26,-0.32,0.34,8.94
-0.06,-0.77,0.18,0.04,0.58,8.67
-0.16,-0.53,0.16,-0.12,0.56,8.40
0.21,-0.06,0.07,0.02,0.45,8.32
2.00,0.66,0.09,0.00,0.37,8.50
2.46,0.79,0.03,-0.07,0.70,8.82
2.38,0.82,0.01,-0.12,0.98,9.06
2.25,0.65,-0.05,-0.19,0.85,9.19
2.71,0.23,-0.12,0.09,0.70,9.43
3.27,0.23,-0.04,0.13,0.98,9.64
2.64,0.20,0.10,0.08,1.26,9.93
1.45,0.27,0.03,0.15,1.35,10.24
0.63,0.12,0.04,0.06,1.17,10.30
0.15,-0.09,0.21,0.07,0.70,10.72
0.13,-0.11,0.30,0.08,0.89,10.82
-0.38,-0.36,0.38,0.04,1.11,10.57
-1.61,-0.34,0.44,0.31,1.00,10.37
-2.29,0.22,0.50,0.23,0.76,10.30
-2.23,0.47,0.53,-0.12,0.75,10.06
-1.99,0.11,0.62,-0.06,0.81,9.99
-2.13,-0.06,0.72,-0.05,0.72,9.58
-2.06,0.03,0.79,-0.02,0.59,9.28
-1.42,0.20,0.71,0.01,0.53,9.10
-1.17,0.49,0.71,0.20,0.53,9.29
-0.85,1.22,0.74,0.29,0.72,9.66
-1.19,1.35,0.83,-0.22,0.75,10.29
-0.89,1.16,0.74,-0.25,0.69,10.48
-0.56,0.87,0.84,-0.28,0.54,10.51
-0.09,0.24,0.88,-0.26,0.96,10.47
-0.64,-0.09,0.96,0.12,1.12,10.71
-1.30,-0.02,0.96,0.12,1.11,10.63
-1.73,0.02,1.13,-0.17,0.97,10.25
-1.65,-0.21,1.21,-0.30,0.57,9.88
-1.32,-0.38,1.28,-0.38,0.53,9.49
-0.93,-0.62,1.26,0.03,0.61,9.48
-0.63,-0.83,1.30,-0.16,0.70,8.94
-0.32,-0.49,1.40,0.11,0.66,8.41
-0.12,0.07,1.44,-0.10,0.61,8.18
0.14,0.50,1.33,-0.22,0.58,8.24
0.55,0.64,1.39,-0.25,0.62,8.38
1.23,0.62,1.35,-0.10,0.71,8.80
1.60,0.83,1.45,-0.12,0.74,8.98
1.64,1.05,1.39,-0.38,0.73,8.94
1.59,0.97,1.35,-0.44,0.75,9.01
1.72,1.55,1.20,0.21,1.03,10.40
0.92,1.59,1.25,-0.40,1.30,10.58
0.25,1.04,1.26,-0.78,1.16,10.76
-0.38,0.13,1.11,-0.48,0.79,11.12
-0.51,-0.10,1.02,-0.12,0.55,11.32
-0.28,-0.25,1.12,-0.39,0.96,10.79
-0.87,-0.86,1.01,-0.29,1.21,10.89
-1.64,-1.16,1.00,-0.20,1.07,10.64
-1.47,-0.98,0.87,-0.06,0.28,9.90
-0.39,-1.05,0.97,-0.49,0.32,9.26
0.02,-1.11,0.86,-0.22,0.56,9.33
0.15,-0.68,0.77,0.27,0.87,9.62
-0.48,0.04,0.78,-0.13,0.61,9.27
-0.20,0.23,0.71,-0.20,0.37,9.27
0.54,0.31,0.68,-0.26,0.22,9.15
1.34,0.41,0.59,-0.15,0.39,9.33
1.93,0.49,0.61,-0.15,0.74,9.49
0.73,0.05,0.38,-0.43,0.95,9.44
0.89,-0.20,0.35,-0.33,0.66,9.40
1.42,-0.26,0.33,0.05,0.57,9.75
1.21,-0.16,0.26,-0.32,1.08,9.93
0.76,-0.68,0.31,-0.25,1.11,9.93
0.53,-0.83,0.27,-0.21,0.90,9.97
0.34,-0.64,0.18,0.15,0.82,10.03
-0.31,-0.36,0.27,-0.18,0.89,10.10
-0.60,-0.62,0.30,-0.12,0.99,10.36
-1.22,-0.79,0.41,0.24,0.88,10.76
-1.77,-0.61,0.40,-0.00,0.81,10.55
-2.09,-0.44,0.46,0.07,0.90,10.53
-2.91,-0.46,0.34,-0.05,0.88,10.39
-3.26,-0.63,0.34,-0.06,0.75,9.98
-2.62,-0.69,0.39,-0.09,0.52,9.72
-2.23,-0.94,0.34,-0.02,0.48,9.39
-1.91,-0.50,0.21,0.06,0.54,9.07
-1.61,-0.39,0.16,-0.08,0.48,8.86
-0.87,-0.41,0.08,-0.30,0.54,8.92
-0.58,-0.32,-0.07,0.21,0.60,9.55
-0.20,-0.13,0.02,-0.16,0.42,9.34
0.24,-0.07,-0.18,-0.19,0.33,9.41
0.66,-0.07,-0.36,0.01,0.58,9.83
0.96,-0.87,-0.54,-0.14,1.05,10.00
0.23,-1.02,-0.61,0.19,0.96,10.45
-0.09,-0.94,-0.77,-0.06,0.71,10.07
-0.07,-1.03,-0.66,0.17,0.46,10.36
0.84,-1.12,-0.64,-0.05,0.35,10.29
0.83,-1.56,-0.78,0.13,1.04,10.71
0.30,-1.83,-1.01,-0.22,1.03,10.00
-0.08,-2.26,-1.13,0.06,0.90,9.59
-0.29,-1.56,-1.25,-0.01,0.37,8.63
0.19,-1.43,-1.21,0.26,0.59,8.54
0.79,-1.33,-1.21,0.34,0.82,8.75
0.30,-1.12,-1.51,0.20,1.10,8.62
-0.88,0.04,-1.47,0.42,0.76,9.01
-0.56,0.18,-1.64,0.21,0.67,9.19
-0.31,0.28,-1.58,0.24,0.66,9.99
-0.47,0.28,-1.66,0.21,0.74,10.40
-0.51,0.02,-1.69,0.34,0.85,10.88
-0.70,-0.87,-1.72,0.04,0.52,10.24
-0.42,-0.82,-1.65,0.70,0.53,10.46
-0.44,-0.08,-1.68,0.85,0.66,10.65
-1.81,0.13,-1.64,0.28,0.66,10.73
-1.91,-0.55,-1.61,0.36,0.40,10.94
-1.41,-1.13,-1.41,0.43,0.36,10.79
-0.80,-1.19,-1.39,0.43,0.44,10.66
-1.21,-1.38,-1.28,0.24,0.86,9.99
-1.24,-1.56,-1.45,0.08,0.72,9.48
-1.11,-1.53,-1.32,0.55,0.50,9.36
-0.65,-1.26,-1.28,0.73,0.40,9.26
-0.03,-1.15,-1.21,0.28,0.56,8.62
0.28,-0.87,-1.17,0.47,0.22,8.28
1.02,-0.28,-1.18,0.31,0.28,7.96
1.78,0.27,-1.10,0.49,0.26,8.21
2.56,1.15,-1.24,0.43,0.69,8.68
2.59,1.43,-1.15,0.49,0.76,9.04
2.38,1.50,-1.17,0.35,0.83,9.35
2.15,1.53,-1.18,0.53,0.81,9.82
1.94,1.54,-1.18,0.10,0.94,10.19
1.58,1.22,-1.18,0.28,1.05,10.70
0.76,0.65,-1.23,0.46,1.10,11.02
0.20,0.34,-1.12,0.30,1.02,11.02
-0.32,-0.07,-1.05,0.09,0.80,10.77
-1.07,-0.45,-1.06,0.52,0.48,10.88
-1.09,-0.26,-1.03,0.20,0.54,10.59
-1.10,-0.28,-1.07,0.22,0.78,10.65
-2.20,-0.96,-1.19,0.02,0.63,10.10
-2.00,-0.82,-1.16,0.39,0.33,10.05
-1.31,-0.60,-1.14,0.21,0.21,9.62
-0.53,-0.68,-1.21,0.07,0.33,9.26
-0.11,0.00,-1.25,0.45,0.97,9.55
-0.98,0.55,-1.31,0.27,0.87,9.54
-1.47,1.07,-1.43,0.19,0.44,9.59
-0.90,1.37,-1.54,0.37,0.11,9.86
0.18,1.45,-1.48,0.38,0.12,10.15
0.88,1.01,-1.52,0.10,0.99,10.08
0.00,0.65,-1.58,0.50,0.94,9.93
-0.33,0.86,-1.58,0.61,0.67,9.43
0.25,1.90,-1.61,0.62,0.54,9.12
0.57,1.94,-1.52,0.56,1.03,9.51
-0.29,1.59,-1.40,0.38,1.18,10.15
-1.40,0.83,-1.47,0.01,0.94,9.92
-0.49,-1.13,-1.34,0.12,0.03,9.55
0.61,-1.51,-1.34,0.17,0.08,9.06
1.50,-1.64,-1.17,0.10,0.29,8.79
1.70,-1.61,-1.19,0.38,0.68,9.00
1.28,-1.28,-1.14,0.34,1.08,9.13
-0.59,-0.45,-1.14,0.32,0.62,9.98
0.06,-0.54,-1.09,-0.35,0.31,9.86
0.98,-1.28,-1.06,-0.46,0.16,10.11
1.74,-1.61,-1.02,0.24,0.77,10.43
1.24,-1.26,-1.03,0.34,0.97,10.17
0.75,-0.98,-1.04,0.14,0.97,9.79
0.42,-0.45,-1.07,0.47,0.74,9.89
0.22,1.15,-0.97,0.47,0.66,10.47
0.08,1.24,-0.93,0.30,0.69,10.84
-0.35,0.71,-0.99,0.22,0.65,10.72
-0.17,0.28,-0.86,0.18,0.58,10.24
-0.17,0.18,-0.77,0.55,0.49,10.15
-0.11,0.71,-0.87,0.61,0.59,9.20
-0.08,0.88,-0.79,0.68,0.62,9.17
-0.13,1.24,-0.77,0.40,0.82,9.24
-0.93,1.06,-0.82,0.26,0.71,9.92
-0.75,0.30,-0.82,-0.42,0.45,9.48
-0.17,-0.60,-0.87,-0.07,0.16,9.66
0.75,-0.91,-0.95,0.34,0.08,9.63
1.90,-0.37,-0.95,0.23,0.63,9.26
1.48,-0.07,-1.06,0.26,0.81,9.26
0.96,0.19,-1.22,0.36,0.67,9.56
1.04,0.64,-1.20,0.42,0.38,9.95
2.35,0.84,-1.27,0.03,0.54,10.82
2.28,0.65,-1.38,-0.04,0.94,10.96
1.56,0.31,-1.50,0.01,1.21,10.92
0.39,0.02,-1.48,0.26,1.05,11.03
-0.59,0.03,-1.59,0.54,0.74,10.74
-0.35,1.05,-1.43,0.48,0.44,10.40
-0.08,1.03,-1.51,0.18,0.59,9.91
0.04,0.81,-1.53,0.38,0.79,10.00
-1.43,0.48,-1.85,-0.27,1.34,9.33
-2.86,-0.50,-1.92,-0.15,1.10,9.50
-3.90,-1.72,-2.14,0.14,0.57,9.43
-3.43,-2.54,-1.95,0.05,0.24,9.23
-2.03,-3.29,-1.76,-0.06,0.57,8.95
-2.16,-3.38,-1.91,-0.01,1.02,9.07
-2.78,-3.05,-2.07,0.07,1.11,9.01
-3.96,-2.52,-2.16,0.93,0.57,9.56
-4.25,-1.29,-2.10,1.47,-0.24,9.69
0.05,2.05,-1.75,0.67,-0.09,9.50
1.52,3.22,-2.07,0.39,0.83,10.10
0.90,3.15,-2.47,-0.06,1.61,10.57
-3.87,0.86,-2.57,0.38,1.45,11.86
-5.78,-0.43,-2.26,0.41,0.64,11.16
-6.01,-1.36,-1.94,0.67,-0.13,10.13
-4.40,-1.48,-1.84,1.20,-0.47,9.25
-0.01,0.82,-1.56,0.75,0.31,8.72
-0.08,1.57,-1.79,0.64,1.10,9.12
-1.69,1.72,-1.97,0.78,1.24,9.90
-3.29,1.27,-1.96,0.36,0.85,9.59
-3.66,0.11,-1.68,-0.17,0.19,8.82
-0.59,-2.71,-1.57,0.24,-0.52,7.10
2.02,-2.94,-1.35,0.47,-0.71,6.64
4.69,-2.05,-1.58,0.35,-0.54,6.35
5.53,0.52,-2.06,0.80,0.67,8.05
5.05,1.88,-2.22,0.85,0.78,9.33
4.41,2.55,-1.95,0.74,0.88,10.77
3.32,1.74,-1.54,0.40,0.69,11.84
3.94,0.71,-1.32,-0.02,0.24,12.15
4.48,0.67,-1.42,-0.32,0.73,11.26
3.98,0.08,-1.51,-0.36,1.28,10.72
2.73,-1.06,-1.49,0.07,1.14,10.13
1.14,-1.95,-1.50,1.07,0.42,9.79
2.52,-0.47,-1.03,0.89,-0.02,8.40
3.18,0.78,-1.07,0.32,0.62,8.89
2.77,1.92,-1.37,0.15,1.12,10.14
-1.05,1.71,-1.60,-0.28,0.93,12.80
-1.79,-0.03,-1.56,0.01,0.18,12.74
-0.99,-1.99,-1.27,-0.23,-0.17,11.25
1.13,-2.78,-1.07,0.27,-0.17,9.89
2.36,-0.25,-1.27,0.76,0.72,9.15
1.26,1.54,-1.35,0.88,1.20,9.78
-0.29,2.29,-1.38,0.52,1.30,10.50
-1.30,2.02,-1.40,0.49,0.97,11.20
-1.64,1.36,-1.18,0.40,0.32,11.74
0.16,-0.02,-1.05,-0.30,0.12,10.57
-0.04,-0.72,-1.10,0.42,0.32,10.53
-0.03,-0.49,-1.08,0.61,0.61,10.02
-0.87,0.22,-0.77,0.92,0.96,9.94
-1.33,0.34,-0.75,0.26,1.11,9.41
-2.12,0.24,-0.58,0.06,0.90,9.28
-2.43,0.36,-0.59,0.38,0.40,9.32
-1.18,0.49,-0.48,0.25,0.21,8.95
-0.54,0.51,-0.42,0.51,0.57,9.10
-0.77,0.62,-0.29,0.52,0.90,9.18
-1.26,1.08,-0.25,0.25,0.88,8.93
-1.89,1.44,-0.22,0.20,0.53,8.82
-1.18,1.97,-0.22,0.43,-0.17,9.38
-0.04,2.21,-0.11,0.36,0.01,9.83
0.75,2.03,-0.00,-0.11,0.54,10.06
-0.57,0.68,-0.10,0.03,1.09,10.61
-1.44,0.37,-0.06,0.29,0.67,10.52
-1.30,0.39,0.01,0.14,0.17,10.04
-0.50,0.10,0.11,0.10,0.05,9.62
0.84,0.01,0.21,0.13,0.80,9.99
-0.22,0.05,0.24,0.02,1.01,10.23
-1.33,-0.27,0.14,-0.32,0.70,10.08
-1.21,-0.97,0.13,-0.42,0.18,9.65
-0.26,-1.56,0.18,-0.21,-0.10,9.41
1.44,-1.54,0.12,-0.08,0.27,8.72
1.41,-1.12,0.04,-0.03,0.62,8.62
1.10,-0.47,-0.11,-0.01,0.77,8.46
0.90,0.92,-0.24,0.24,0.72,8.86
0.75,1.55,-0.37,0.28,0.68,9.28
0.40,1.93,-0.46,-0.09,0.55,9.48
0.54,1.70,-0.59,-0.50,0.25,9.49
1.87,1.15,-0.84,0.13,0.54,10.67
1.43,0.90,-0.87,-0.21,0.96,10.56
0.56,0.37,-0.84,0.04,1.07,10.80
-0.46,-0.04,-1.03,0.33,0.72,10.86
-0.80,0.02,-1.15,0.22,0.31,10.61
0.58,-0.43,-1.17,-0.28,0.42,10.68
0.72,-1.59,-1.20,-0.20,0.99,10.86
-0.14,-2.37,-1.21,0.07,1.02,10.91
-1.31,-2.15,-1.20,0.16,0.48,10.05
-1.03,-2.03,-1.35,-0.21,0.20,9.44
-0.30,-1.83,-1.42,0.16,0.19,9.54
0.00,-1.38,-1.43,0.42,0.37,9.66
-0.63,-0.33,-1.44,0.37,0.69,9.43
-1.06,-0.03,-1.60,0.27,0.35,9.09
-0.49,0.54,-1.67,0.50,0.18,9.16
0.20,1.07,-1.51,0.70,0.16,9.19
1.01,1.40,-1.60,0.30,0.53,8.96
-0.07,1.62,-1.57,0.66,1.15,9.63
-1.21,1.86,-1.68,0.77,0.94,9.83
-1.33,1.93,-1.57,0.84,0.57,9.92
-0.34,0.94,-1.35,0.19,0.51,10.10
-0.58,0.49,-1.35,0.51,0.73,10.57
-1.16,0.09,-1.28,0.45,0.69,10.52
-1.64,-0.24,-1.26,0.31,0.37,10.20
-0.43,-1.02,-1.22,0.12,0.06,9.65
0.29,-1.32,-1.20,0.41,0.37,10.00
0.21,-1.47,-1.12,0.14,0.73,9.77
-0.48,-1.80,-1.13,0.03,0.69,9.54
0.45,-1.81,-1.13,0.27,0.11,8.95
1.36,-1.12,-1.09,0.44,0.20,9.07
1.88,-0.38,-1.09,0.41,0.55,8.95
1.71,0.33,-1.06,0.65,0.87,9.56
0.28,1.37,-1.13,0.11,0.59,9.37
0.67,1.34,-1.10,0.31,0.21,9.75
1.39,1.55,-1.12,0.62,0.22,10.01
1.62,1.50,-1.09,0.15,0.56,9.66
0.53,1.31,-1.06,0.68,0.96,10.23
-0.27,1.06,-1.09,0.23,0.82,9.72
-0.16,1.05,-1.06,0.50,0.51,9.78
0.18,1.09,-0.97,0.57,0.23,9.73
0.73,1.03,-1.05,0.17,0.34,9.47
0.60,1.18,-1.11,0.37,0.86,10.20
-0.05,0.70,-1.15,-0.10,0.87,10.05
-0.42,0.11,-1.10,-0.09,0.56,10.38
-0.51,-0.28,-1.22,0.19,0.18,10.68
0.61,-0.29,-1.08,-0.08,0.23,10.32
0.76,-0.52,-1.20,-0.10,0.56,10.27
0.54,-0.65,-1.27,0.22,0.86,10.62
-0.54,-0.25,-1.32,0.29,0.68,10.18
-0.45,-0.22,-1.23,0.16,0.39,9.82
-0.14,0.05,-1.29,0.35,0.28,9.71
0.15,0.64,-1.22,0.68,0.47,9.92
0.21,1.01,-1.16,0.04,0.85,9.42
-0.25,0.63,-1.14,0.27,0.72,9.50
-0.57,0.76,-1.24,0.61,0.35,9.47
-0.14,1.23,-1.24,0.54,0.05,9.13
0.50,1.27,-1.13,0.26,0.01,9.02
1.50,0.73,-1.26,0.25,0.64,9.52
1.09,0.61,-1.19,0.43,0.76,9.95
0.54,0.53,-1.23,0.05,0.67,9.63
1.08,-0.14,-1.32,0.17,0.05,9.41
2.40,-0.04,-1.34,0.38,0.27,9.41
2.79,0.31,-1.18,0.48,0.76,9.87
1.87,0.65,-1.27,0.35,1.11,10.12
0.02,0.72,-1.28,0.34,0.60,10.61
0.35,0.76,-1.34,0.05,0.21,10.46
1.08,0.65,-1.21,0.11,0.23,10.51
1.03,0.44,-1.16,0.49,0.65,10.79
0.23,0.42,-1.19,0.45,1.09,10.58
-1.76,0.78,-1.04,0.55,0.67,10.16
-1.66,1.14,-1.01,0.60,0.45,9.98
-1.40,1.56,-0.88,0.40,0.36,10.08
-1.23,1.40,-0.88,0.21,0.63,9.90
-1.70,1.08,-0.93,0.22,0.55,9.68
-1.34,0.90,-0.91,0.08,0.44,9.24
-0.98,0.76,-0.84,0.24,0.25,9.38
-0.30,0.75,-0.83,0.14,0.25,9.15
0.10,0.94,-0.79,0.27,0.19,9.52
0.45,1.26,-0.81,0.21,0.41,9.89
0.38,1.15,-0.80,-0.11,0.59,10.01
0.45,0.67,-0.90,-0.15,0.58,10.21
0.71,0.06,-0.84,0.32,0.27,10.30
1.11,0.41,-0.79,0.29,0.32,10.09
1.47,0.33,-0.66,-0.05,0.46,9.80
1.76,-0.42,-0.70,0.04,0.76,9.64
1.53,-0.48,-0.73,0.29,0.53,9.65
1.49,-0.19,-0.66,0.38,0.32,9.44
2.07,-0.15,-0.55,-0.04,0.20,9.02
3.29,-0.25,-0.64,0.33,0.52,9.28
3.17,0.16,-0.57,0.16,0.76,9.15
2.79,0.41,-0.55,0.10,0.82,9.25
2.31,0.66,-0.58,0.32,0.69,9.62
2.04,0.98,-0.62,0.25,0.52,9.61
2.67,1.41,-0.55,0.11,0.70,10.12
2.07,1.35,-0.59,0.28,0.96,10.66
1.10,1.48,-0.61,0.23,0.97,11.04
0.16,1.31,-0.58,0.02,0.89,10.98
-0.37,0.98,-0.57,0.08,1.04,11.13
-1.43,0.82,-0.52,0.28,1.08,11.19
-2.48,0.75,-0.53,0.35,0.90,11.22
-3.20,0.29,-0.34,-0.05,0.43,10.76
-3.01,0.05,-0.31,0.07,0.60,10.85
-3.42,-0.06,-0.17,0.20,0.85,11.04
-4.46,-0.37,-0.22,-0.22,0.90,10.53
-4.98,-0.89,-0.19,-0.37,0.53,9.76
-3.56,-1.07,-0.17,0.24,0.05,9.06
-2.65,-0.49,-0.02,0.16,0.34,8.98
-2.64,-0.34,0.03,-0.08,0.65,8.86
-3.07,-0.43,0.05,-0.11,0.31,8.79
-2.22,0.04,0.10,0.10,0.00,8.85
-1.07,0.52,0.15,0.04,-0.02,8.83
-0.11,0.50,0.20,-0.23,0.19,8.62
0.43,0.65,0.18,0.24,0.54,8.85
0.33,1.11,0.21,0.42,0.48,8.95
0.58,1.50,0.30,0.31,0.43,8.99
1.12,1.42,0.53,-0.19,0.42,8.86
1.46,1.19,0.59,0.06,0.37,9.14
2.16,1.44,0.80,-0.05,0.36,8.92
2.57,1.36,0.75,-0.10,0.35,8.85
3.04,1.29,0.77,0.15,0.52,9.05
2.96,1.34,0.81,0.00,0.68,9.23
2.69,1.33,1.01,0.08,0.65,9.73
2.14,1.22,0.99,-0.28,0.52,10.11
2.03,0.81,0.99,-0.69,0.52,10.08
2.45,-0.20,1.00,-0.16,0.76,10.85
1.87,0.02,1.02,-0.21,0.99,10.86
0.69,0.11,1.07,-0.37,0.93,10.85
-0.14,-0.02,1.01,-0.33,0.87,10.98
-0.80,-0.02,1.08,-0.05,0.77,11.25
-1.30,0.31,1.06,-0.15,0.80,11.34
-1.86,0.29,1.10,-0.55,0.82,10.97
-2.33,-0.07,1.09,-0.47,0.63,11.04
-2.21,-0.56,1.10,-0.10,0.39,10.41
-2.03,-0.31,0.97,0.04,0.31,10.27
-2.00,0.08,1.02,-0.49,0.43,9.56
-2.03,0.11,1.10,-0.36,0.35,9.52
-1.39,0.36,0.95,-0.23,0.47,9.39
-1.15,0.49,1.02,-0.35,0.47,9.29
-1.35,0.39,0.90,-0.42,0.49,9.21
-1.17,0.17,0.83,-0.40,0.32,8.94
0.47,0.47,0.82,-0.25,0.23,8.78
0.96,0.51,0.78,-0.41,0.51,8.74
0.69,0.17,0.71,-0.33,0.68,8.90
0.55,-0.04,0.67,-0.27,0.62,8.94
1.22,0.15,0.77,-0.03,0.39,9.27
1.45,0.32,0.77,-0.13,0.63,9.43
1.06,0.21,0.84,-0.26,0.90,9.67
0.24,0.10,0.85,-0.20,0.99,10.06
-0.76,0.30,0.84,-0.28,0.28,10.15
-0.05,0.26,0.86,-0.51,0.25,9.84
0.62,-0.05,0.98,-0.31,0.51,9.85
0.24,-0.33,0.97,-0.15,0.70,9.95
-0.27,-0.31,0.97,-0.28,0.73,9.54
-0.29,0.02,1.02,-0.00,0.21,9.54
0.39,0.32,1.13,-0.37,0.18,9.36
0.93,0.51,1.18,-0.28,0.31,9.67
0.76,0.69,1.15,-0.30,0.66,10.17
0.69,0.71,1.15,-0.32,0.57,10.25
0.58,0.51,1.17,-0.30,0.42,10.56
0.59,0.22,1.10,-0.40,0.41,10.65
0.89,-0.58,1.24,-0.28,0.72,10.95
0.40,-0.91,1.27,-0.34,0.89,10.79
-0.26,-1.31,1.25,-0.51,0.77,10.21
-0.21,-1.60,1.24,-0.58,0.37,9.66
1.48,-1.55,1.14,-0.17,0.17,9.01
1.96,-1.04,1.17,-0.16,0.57,9.14
1.20,-0.55,1.08,-0.06,0.95,9.33
0.39,0.00,1.03,-0.08,1.25,9.55
-1.82,1.13,1.02,-0.50,0.31,9.69
-1.49,1.11,0.64,-0.87,0.06,9.17
0.09,0.72,0.86,-0.17,0.32,9.90
0.35,0.53,0.97,-0.14,0.58,10.29
-1.25,0.32,0.78,-0.28,0.83,10.17
-1.31,-0.22,0.94,-0.70,0.56,9.93
-1.23,-0.82,0.70,-0.42,0.40,10.03
-1.16,-1.00,0.79,0.20,0.44,10.45
-1.72,-0.96,0.87,-0.40,0.99,10.44
-2.66,-1.40,0.83,-0.11,0.91,10.59
-3.23,-1.56,0.95,-0.27,0.35,10.06
-3.04,-1.23,0.95,-0.33,-0.19,9.65
-2.01,-0.70,0.95,-0.24,-0.30,9.69
-1.57,-0.51,0.89,-0.47,0.31,9.94
-1.71,-0.94,0.89,-0.75,0.33,9.54
-1.98,-1.50,0.85,-0.21,0.02,9.53
-0.94,-1.11,0.92,-0.22,-0.43,8.47
0.24,-0.65,0.90,-0.19,-0.29,8.12
1.15,0.10,0.92,-0.40,-0.06,8.19
1.73,0.40,0.80,0.07,0.34,8.84
1.93,0.47,0.86,-0.58,0.88,9.57
0.44,-0.14,0.71,-0.55,0.67,10.33
0.12,-0.64,0.59,-0.86,0.24,10.40
0.60,-2.24,0.67,-0.82,-0.18,10.30
1.47,-3.49,0.62,-0.77,-0.19,10.08
3.32,-3.81,0.89,0.06,0.33,9.64
1.96,-3.03,0.63,0.15,0.60,9.20
1.51,-2.04,0.58,-0.06,0.57,8.66
1.84,-0.46,0.54,0.25,0.21,9.69
1.97,0.08,0.64,-0.05,0.56,10.49
1.56,-0.14,0.80,-0.46,0.91,10.97
1.09,-0.72,0.82,-0.62,0.89,11.37
-0.34,-1.11,0.75,0.09,0.70,11.09
-0.93,-0.61,0.68,0.10,0.72,10.96
-1.49,0.05,0.64,0.14,0.84,10.98
-2.76,0.35,0.67,0.42,0.70,11.34
-3.72,0.52,0.74,0.21,0.52,11.46
-3.79,-0.73,0.83,-0.39,0.20,10.25
-3.42,-1.24,0.85,0.18,0.12,10.06
-3.30,-0.82,0.92,0.32,0.14,9.44
-3.11,0.51,0.96,0.32,0.56,8.99
-3.35,0.75,0.86,0.32,0.57,8.78
-3.22,1.16,0.96,0.14,0.38,8.83
-2.88,1.76,0.97,-0.29,0.10,8.72
-1.83,0.80,0.86,-0.17,0.30,9.19
-1.50,0.67,0.87,0.04,0.13,9.35
-1.23,0.95,0.94,0.09,0.05,9.30
-0.81,1.21,1.02,-0.27,0.09,9.04
-0.48,0.92,0.78,-0.61,0.24,8.71
0.19,0.76,0.70,0.10,0.05,9.09
0.85,0.79,0.69,-0.10,0.11,8.64
1.42,0.44,0.87,-0.11,0.16,8.34
2.96,1.09,0.89,0.49,0.19,8.30
3.52,1.98,1.06,0.24,0.44,8.65
3.06,2.57,0.92,-0.18,0.75,9.15
2.69,2.94,0.88,0.41,0.89,10.10
1.24,3.72,1.00,-0.89,-0.33,10.17
1.81,3.04,0.79,-0.91,-0.54,9.76
3.69,1.68,0.80,-0.32,-0.50,10.17
5.29,1.07,0.75,-0.32,0.06,10.42
5.50,0.51,0.96,-0.27,0.62,10.57
4.50,-1.16,1.23,-1.08,1.09,10.81
2.76,-2.71,0.93,-1.76,0.78,10.87
1.36,-4.99,0.41,-2.25,0.28,10.73
2.08,-12.00,0.70,-2.01,0.61,10.83
1.34,-14.84,0.96,-1.29,1.04,11.19
0.22,-15.78,1.28,-0.63,1.09,10.67
-0.11,-15.00,1.69,-0.47,0.98,9.72
-4.36,-10.12,1.43,1.34,-0.54,10.04
-3.09,-5.58,0.94,0.40,-0.93,8.58
-0.27,-1.68,0.60,-0.15,-0.16,8.41
3.27,1.53,0.31,1.02,0.22,9.76
2.80,4.92,0.51,1.41,1.60,10.77
-1.62,6.81,1.06,1.36,1.75,11.58
-6.52,8.59,0.99,0.48,1.42,11.49
-8.80,9.17,0.98,0.51,0.41,11.60
-5.61,9.19,0.77,0.06,-0.14,11.62
-3.56,8.58,0.74,-0.24,0.81,11.08
-4.13,6.90,0.54,0.10,0.95,10.59
-6.23,4.98,0.39,-0.49,0.73,9.01
-10.47,0.24,1.78,0.70,-0.44,7.26
-7.73,-1.03,1.50,-0.98,-0.87,6.70
-3.91,-0.78,0.80,-1.89,-0.45,6.98
-2.54,-0.88,0.65,-0.81,0.09,8.77
-1.20,-0.91,0.38,-1.03,0.58,10.33
-6.72,-2.60,0.56,0.50,0.27,12.27
-7.68,-2.11,0.71,1.86,-0.64,12.39
-5.67,-0.81,1.35,0.45,-0.64,9.86
-1.18,0.08,2.37,0.51,-0.19,7.77
-0.99,-0.24,1.84,-0.58,-0.19,6.15
-1.22,0.14,1.31,-0.93,-0.05,5.44
-1.39,0.36,0.99,0.45,-0.17,4.78
1.34,2.27,1.76,1.10,0.01,6.31
2.52,5.35,1.85,0.95,0.22,8.00
2.81,8.24,1.74,1.02,0.23,11.01
0.99,8.46,1.63,-0.11,0.06,13.01
1.78,2.58,1.24,-2.34,-0.35,11.96
3.68,-1.20,1.43,-1.86,-0.04,9.71
5.15,-3.82,1.47,-1.37,0.06,7.71
5.10,-4.29,1.30,-0.68,0.51,6.93
1.00,-0.48,0.98,1.29,0.46,8.51
-0.36,2.34,0.78,0.91,0.42,9.67
-1.06,3.66,0.87,-0.22,0.40,11.02
-0.21,3.60,0.89,-1.33,-0.24,12.18
2.15,-0.95,0.51,-1.97,-0.35,12.09
2.61,-2.61,0.62,-0.58,0.16,11.15
1.97,-3.14,0.64,0.23,0.42,10.49
1.07,-1.88,0.65,0.25,0.67,9.52
-0.14,-0.11,0.48,0.28,0.56,9.13
-2.26,2.80,0.19,-0.20,0.13,10.54
-2.73,2.22,0.03,-1.02,-0.46,11.19
-1.51,0.22,0.18,-1.31,-0.72,11.58
0.27,-3.72,0.33,-0.25,-0.22,10.44
0.40,-3.14,0.51,-0.01,0.05,9.74
-0.83,-1.85,0.31,0.25,0.11,9.25
-1.67,-0.66,0.00,0.28,0.16,8.83
-1.60,0.77,0.16,0.15,-0.36,9.39
-1.08,0.92,0.23,-0.10,-0.15,9.90
-0.95,0.51,0.37,-0.35,0.03,10.32
-1.23,-0.20,0.19,-0.75,0.02,9.93
-0.87,-1.52,0.19,-0.10,-0.67,9.09
-0.31,-1.33,0.09,0.26,-0.58,8.93
0.05,-0.60,0.22,0.52,-0.28,9.09
-0.01,0.29,0.28,0.34,-0.22,9.27
-0.17,0.58,0.22,-0.17,-0.27,9.28
0.37,-0.09,0.23,-0.14,-0.28,10.42
0.29,-0.75,0.24,-0.54,-0.17,10.49
-0.29,-1.71,0.26,-0.38,-0.14,10.47
-0.54,-2.34,0.32,-0.10,-0.09,9.82
-1.07,-2.23,0.35,-0.27,-0.25,9.27
-1.22,-2.10,0.35,-0.05,-0.47,9.13
-0.89,-1.70,0.27,0.22,-0.65,9.08
0.07,-0.39,0.35,0.04,-0.16,9.22
-0.45,-0.25,0.30,-0.08,-0.01,9.37
-1.03,-0.14,0.19,-0.11,-0.16,9.39
-1.03,0.00,0.30,-0.04,-0.62,9.43
-0.67,0.10,0.26,-0.08,-1.05,9.48
1.29,0.42,0.32,0.28,-0.39,10.49
0.91,0.43,0.32,-0.07,0.19,10.56
-0.19,0.05,0.27,-0.46,0.23,10.36
-1.47,-1.16,0.14,0.00,-0.49,10.80
-2.46,-1.34,0.19,0.07,-0.74,11.16
-2.49,-1.68,0.29,-0.24,-1.11,10.52
-1.27,-2.30,0.38,-0.45,-1.29,9.84
0.89,-2.49,0.37,-0.16,-0.24,9.16
0.13,-2.17,0.32,-0.11,0.22,8.92
-1.25,-1.70,0.20,0.21,0.08,8.70
-1.91,-1.05,0.10,0.31,-0.50,8.45
-1.48,-0.22,0.18,0.45,-0.91,8.62
0.68,1.60,0.24,0.06,-0.63,9.54
1.56,1.76,0.23,-0.28,-0.31,9.88
1.31,1.41,0.15,-0.34,-0.02,10.17
-1.38,0.46,0.04,0.23,-0.17,10.52
-1.94,0.59,0.07,0.35,-0.69,10.35
-1.36,0.82,0.16,0.22,-0.99,10.42
-0.70,0.81,0.25,0.09,-0.90,10.54
-0.80,-0.52,0.10,-0.49,-0.25,10.30
-1.49,-1.52,0.10,-0.26,-0.31,9.95
-2.13,-2.32,-0.03,-0.18,-0.68,9.40
-1.54,-2.35,0.04,-0.03,-1.01,8.89
-0.20,-1.98,0.08,0.04,-1.02,8.75
0.63,-1.15,-0.06,-0.15,-0.16,9.02
0.39,-1.03,-0.11,-0.51,-0.11,9.00
-0.16,-1.14,-0.29,-0.15,-0.55,9.40
0.01,-0.93,-0.29,0.05,-1.03,9.70
1.22,-0.48,-0.36,0.11,-1.05,9.95
1.91,-0.24,-0.36,-0.07,-0.83,9.91
1.82,-0.30,-0.56,-0.20,-0.49,9.69
1.10,-0.78,-0.62,0.31,-0.69,9.52
0.98,-0.41,-0.80,0.63,-0.74,9.63
1.14,0.27,-0.71,0.42,-0.63,9.59
1.42,0.57,-0.81,0.13,-0.49,9.58
0.68,-0.18,-0.86,-0.12,-0.06,10.17
-0.35,-0.46,-1.05,0.12,-0.18,10.36
-1.09,-0.74,-0.99,0.19,-0.61,10.11
-0.99,-0.91,-1.07,0.05,-1.15,9.70
0.60,-0.63,-1.21,0.29,-0.69,10.53
-0.24,-0.46,-1.27,0.02,-0.33,11.06
-1.61,-0.89,-1.40,-0.24,-0.42,11.02
-2.02,-1.71,-1.43,-0.12,-0.92,10.88
-0.82,-2.32,-1.50,0.24,-1.11,10.30
-0.17,-2.07,-1.49,0.40,-0.83,10.35
-0.30,-1.95,-1.61,0.21,-0.40,10.31
-1.08,-2.04,-1.67,0.20,-0.17,10.43
-1.92,-1.93,-1.69,0.43,-0.36,10.75
-2.60,-2.02,-1.61,0.35,-1.30,9.62
-1.87,-1.91,-1.53,0.60,-1.48,9.29
-1.50,-1.34,-1.53,0.69,-1.36,9.11
-1.68,0.10,-1.75,0.56,-1.28,8.82
-1.68,0.58,-1.87,0.59,-1.48,8.91
-1.55,0.85,-1.93,0.65,-1.70,8.91
-1.07,1.02,-1.95,0.46,-1.82,8.85
0.10,1.28,-1.99,0.51,-1.44,9.40
0.41,1.22,-2.07,0.24,-1.03,9.38
0.09,1.04,-2.08,0.44,-0.86,9.83
-0.92,0.69,-2.24,0.54,-0.93,10.03
-0.94,0.31,-2.28,0.28,-1.20,9.73
0.17,-0.48,-2.30,0.66,-1.59,10.11
0.60,-0.58,-2.22,0.49,-1.19,10.19
0.28,-0.78,-2.21,0.26,-0.91,10.20
-1.06,-1.64,-2.23,0.62,-1.29,10.04
-0.99,-1.63,-2.19,0.68,-1.55,9.64
-0.08,-1.40,-2.07,0.32,-1.61,8.98
1.38,-1.25,-2.04,0.43,-1.34,8.69
1.64,-0.30,-2.09,0.99,-0.37,8.77
0.75,0.76,-2.04,0.89,-0.35,8.73
-0.06,1.45,-2.01,0.79,-0.79,8.73
0.04,1.85,-2.04,0.95,-1.26,9.02
0.78,2.49,-2.00,0.82,-1.34,9.52
1.42,3.25,-1.98,0.53,-0.61,10.66
0.69,2.57,-2.06,0.24,-0.59,10.64
0.18,1.68,-2.04,0.19,-0.75,10.44
-0.32,0.60,-2.11,0.78,-1.08,10.17
0.03,0.55,-2.02,0.83,-0.97,10.22
0.05,0.48,-1.91,0.59,-0.62,10.40
-0.57,0.13,-1.93,0.22,-0.39,10.47
-1.95,-1.13,-1.95,0.45,-0.66,10.65
-2.23,-1.16,-1.93,0.52,-0.92,10.24
-1.89,-0.90,-1.83,0.35,-1.16,9.60
-1.45,-0.58,-1.86,0.49,-1.30,9.49
-0.99,-0.25,-1.95,0.56,-1.09,9.54
-1.15,0.50,-1.91,0.45,-0.62,9.78
-1.84,0.41,-1.94,0.06,-0.88,9.27
-1.62,0.27,-1.98,0.18,-1.38,9.13
-0.97,0.31,-2.02,0.65,-1.52,9.23
1.00,1.23,-1.99,0.64,-1.00,9.13
1.08,1.40,-1.95,0.62,-0.72,9.16
0.72,1.33,-2.00,0.46,-0.60,9.16
-0.16,1.74,-2.00,0.86,-1.15,9.92
0.22,1.54,-1.98,0.19,-1.45,9.61
0.79,0.73,-1.88,0.04,-1.48,9.85
1.02,-0.05,-1.94,0.38,-1.23,10.22
-0.93,-0.73,-1.81,0.43,-1.38,10.41
-1.28,-0.70,-1.91,0.14,-1.78,9.77
-0.75,-1.15,-1.83,0.15,-1.93,9.24
0.29,-1.33,-1.87,0.38,-1.97,9.07
1.30,-0.74,-1.90,0.61,-1.63,9.29
0.99,0.16,-1.97,0.34,-1.17,9.49
0.66,0.02,-1.94,0.25,-1.36,9.49
0.81,0.16,-1.91,0.49,-1.57,9.70
1.42,0.96,-1.92,0.45,-1.66,10.07
1.83,1.00,-1.92,0.50,-1.42,10.22
1.70,0.96,-1.90,0.45,-1.17,10.61
1.06,1.00,-1.96,0.51,-1.01,10.79
-0.53,0.60,-1.92,0.41,-1.48,10.78
-0.43,0.29,-1.82,0.44,-1.67,10.45
-0.04,0.24,-1.80,0.58,-1.68,10.47
-0.04,0.35,-1.85,0.56,-1.36,10.23
-0.29,0.31,-1.76,0.33,-1.09,9.96
-1.30,-0.28,-1.91,0.29,-1.30,9.61
-1.36,-0.30,-1.85,0.47,-1.74,9.47
-1.04,-0.15,-1.89,0.49,-2.06,9.33
0.70,0.36,-1.95,0.44,-1.59,9.43
0.70,0.49,-1.99,0.39,-1.17,9.67
-0.04,0.53,-1.97,0.24,-1.11,9.91
-0.85,0.52,-2.01,0.38,-1.41,10.17
-0.15,0.21,-1.93,0.43,-2.12,9.58
1.19,0.43,-1.88,0.70,-1.81,9.64
1.68,0.79,-1.83,0.61,-1.18,9.88
1.24,0.95,-1.90,0.40,-0.62,10.04
0.09,0.66,-1.84,0.45,-0.56,10.30
-0.93,0.02,-1.85,0.46,-1.58,9.52
-0.28,0.11,-1.73,0.90,-1.80,9.53
0.74,0.59,-1.69,0.61,-1.53,9.33
0.62,0.96,-1.73,0.46,-0.91,9.52
-0.11,0.78,-1.79,0.39,-0.96,9.44
-0.51,0.62,-1.76,0.29,-1.36,9.15
-0.18,0.57,-1.76,0.45,-1.75,9.07
1.39,0.73,-1.74,0.27,-1.35,9.37
1.18,0.70,-1.74,0.26,-0.95,9.69
0.24,0.71,-1.82,0.37,-0.79,10.12
-0.59,0.73,-1.86,0.32,-0.94,10.24
-0.55,-0.05,-1.81,0.24,-1.76,10.09
0.32,-0.08,-1.79,0.41,-1.73,10.03
0.74,0.23,-1.76,0.56,-1.31,10.28
0.47,0.52,-1.79,0.34,-0.88,10.59
-1.46,-0.57,-1.82,0.20,-1.13,10.83
-1.70,-0.90,-1.71,0.31,-1.40,10.69
-1.64,-0.94,-1.71,0.35,-1.50,10.32
-1.47,-0.89,-1.70,0.30,-1.44,9.97
-1.30,-0.93,-1.72,0.30,-1.25,9.43
-1.42,-0.77,-1.70,0.47,-1.20,9.37
-1.80,-0.44,-1.71,0.47,-1.37,9.15
-1.98,-0.15,-1.77,0.34,-1.62,8.86
-1.20,0.12,-1.77,0.44,-1.78,8.91
-0.14,0.43,-1.76,0.25,-1.48,8.99
-0.06,0.48,-1.80,0.19,-1.37,9.03
-0.21,0.40,-1.91,0.43,-1.43,9.23
0.01,0.44,-1.85,0.36,-1.81,9.31
1.16,0.40,-1.86,0.21,-1.86,9.25
1.80,0.27,-1.88,0.65,-1.56,9.75
1.49,0.43,-1.89,0.63,-1.12,10.03
-0.16,0.09,-1.99,0.21,-1.24,10.55
-0.23,-0.58,-1.98,0.24,-1.48,10.56
0.15,-0.99,-1.85,0.31,-1.60,10.40
0.16,-0.90,-1.82,0.50,-1.49,10.32
-0.10,-0.82,-1.76,0.30,-1.44,9.87
0.13,-0.82,-1.85,0.54,-1.64,9.57
0.74,-0.30,-1.77,0.40,-1.49,9.31
0.37,-0.04,-1.87,0.34,-1.34,9.23
-0.35,-0.11,-1.93,0.30,-1.61,9.07
-0.13,-0.16,-1.92,0.51,-1.90,9.16
0.73,0.06,-1.84,0.48,-1.85,9.25
1.16,0.49,-1.85,0.50,-1.46,9.50
-0.35,0.89,-1.81,0.33,-1.16,10.16
-0.88,0.77,-1.94,0.35,-1.56,10.34
-0.53,0.53,-1.89,0.49,-1.89,10.51
0.14,0.47,-1.81,0.47,-1.81,10.58
0.35,0.43,-1.72,0.45,-1.38,10.68
-1.70,0.07,-1.80,0.42,-0.92,10.94
-2.77,-0.16,-1.74,0.32,-1.38,10.77
-2.85,-0.47,-1.79,0.15,-1.90,10.38
-1.44,-1.20,-1.72,0.54,-1.85,9.63
-1.34,-0.91,-1.67,0.72,-1.64,9.57
-1.47,-0.19,-1.67,0.62,-1.44,9.36
-1.98,0.31,-1.74,0.50,-1.40,9.31
-2.37,0.55,-1.93,-0.03,-1.98,9.31
-1.54,0.26,-1.95,0.07,-2.05,9.21
-1.00,0.16,-1.98,0.69,-1.96,9.41
-0.95,0.53,-2.10,0.77,-1.76,9.01
-0.63,1.41,-2.13,0.43,-1.98,8.63
0.16,1.67,-2.39,0.60,-1.86,9.02
0.61,1.65,-2.45,0.28,-1.62,9.27
0.41,1.31,-2.73,0.09,-1.51,9.60
-0.19,0.48,-2.89,0.02,-1.59,10.08
-0.87,-1.19,-3.09,0.39,-1.76,10.13
-0.87,-1.27,-3.00,0.65,-1.56,10.02
-1.00,-0.88,-3.09,0.43,-1.76,9.42
-1.06,-0.11,-3.55,0.80,-1.92,9.23
-0.76,0.52,-3.81,0.44,-2.20,9.02
-0.19,0.99,-4.22,0.56,-2.21,9.33
0.79,0.99,-4.31,0.26,-1.96,9.33
1.56,0.63,-4.67,0.24,-1.47,9.56
-1.89,-0.42,-4.98,0.09,-1.33,10.20
-2.93,-1.24,-5.40,-0.10,-2.23,9.62
-1.80,-2.01,-5.53,0.41,-2.58,9.27
0.84,-1.72,-5.84,1.23,-1.90,9.37
0.75,-0.73,-5.92,1.13,-1.51,9.67
-0.10,-0.37,-6.09,0.85,-1.82,9.65
-0.41,-0.27,-6.44,0.93,-2.27,10.05
0.75,0.03,-6.73,0.81,-2.25,10.74
1.48,0.04,-7.10,0.88,-1.73,10.78
1.43,-0.66,-7.08,0.54,-1.70,10.13
1.12,-1.74,-7.33,0.49,-1.98,9.44
1.26,-2.74,-7.65,1.08,-1.94,9.48
0.77,-3.35,-8.03,0.98,-2.11,9.24
1.38,-2.76,-8.09,1.47,-1.95,9.77
1.52,-2.25,-8.04,1.45,-1.94,10.12
1.17,-1.07,-8.36,1.68,-1.93,10.13
1.11,-0.59,-8.48,1.80,-2.16,10.11
1.26,0.13,-8.75,1.66,-2.04,9.92
1.30,0.49,-8.75,1.33,-1.82,9.86
1.21,-0.20,-9.27,1.63,-1.86,9.33
1.07,-0.62,-9.07,1.83,-2.02,9.23
0.73,-0.17,-9.28,1.89,-2.29,9.10
1.40,0.63,-9.55,2.15,-2.19,9.52
1.14,0.56,-9.70,1.32,-1.50,10.58
-0.06,-0.42,-9.79,1.41,-1.52,11.25
-0.97,-1.26,-9.75,1.57,-2.17,11.15
-0.75,-1.81,-9.88,1.78,-2.61,10.55
0.74,-1.37,-9.77,2.08,-1.85,10.12
0.16,-0.67,-9.95,2.26,-1.49,10.43
-0.77,-0.00,-9.84,2.22,-1.48,10.95
-2.08,0.30,-9.85,1.96,-1.77,11.26
-2.56,-0.27,-9.80,1.77,-2.09,10.13
-2.21,-0.09,-9.81,2.20,-1.91,10.05
-2.74,0.42,-9.84,2.20,-1.69,10.00
-3.67,0.88,-9.87,2.01,-1.82,9.77
-3.57,0.49,-9.94,1.69,-2.63,9.27
-2.57,0.21,-9.84,1.81,-2.60,9.22
-1.83,0.25,-9.85,1.93,-2.23,9.33
-1.40,0.44,-9.82,1.86,-1.89,9.09
-1.60,0.21,-9.80,2.04,-2.05,8.80
-1.55,0.45,-9.72,2.12,-2.05,8.96
-1.42,1.01,-9.65,2.08,-2.07,9.17
-1.04,1.47,-9.70,2.02,-2.20,9.24
0.27,1.27,-9.64,1.76,-2.04,9.71
-0.04,0.86,-9.71,1.69,-1.82,9.90
-0.60,0.22,-9.69,1.52,-1.94,9.92
-0.54,-0.38,-9.70,1.36,-2.18,9.89
0.26,-1.51,-9.71,1.69,-2.04,9.58
0.50,-1.45,-9.66,1.66,-1.81,9.58
-0.05,-1.43,-9.67,1.77,-1.82,9.62
-0.49,-1.47,-9.74,1.69,-2.00,9.39
0.01,-1.59,-9.62,1.42,-2.36,8.81
2.51,-1.11,-9.67,2.01,-2.16,8.62
2.96,-0.38,-9.66,1.80,-1.65,8.55
2.52,0.40,-9.91,1.69,-1.54,8.42
2.30,1.02,-9.99,1.74,-2.20,8.62
3.02,1.50,-10.13,2.11,-2.02,9.39
3.16,2.00,-10.07,2.13,-1.68,10.42
2.82,2.02,-10.22,1.51,-1.76,10.70
3.15,-0.01,-10.51,0.89,-2.06,10.43
3.55,-1.35,-10.82,1.41,-1.93,10.30
3.47,-1.92,-10.93,2.11,-1.41,10.58
3.13,-1.90,-10.76,1.84,-1.19,10.31
2.45,-2.05,-11.13,1.71,-1.28,10.05
2.10,-2.01,-11.22,1.48,-1.77,10.00
2.47,-1.72,-11.71,1.73,-1.70,10.13
2.87,-1.73,-11.67,1.96,-1.29,10.24
1.93,-1.55,-12.16,2.26,-1.05,10.05
1.21,-0.87,-11.98,2.41,-1.19,10.18
0.94,-0.31,-12.27,1.86,-1.69,9.71
1.51,-0.03,-12.68,1.79,-1.72,9.80
1.90,-0.12,-13.01,2.04,-1.31,10.35
1.45,0.06,-13.23,2.43,-0.97,10.66
0.85,0.32,-13.12,2.18,-0.92,10.57
-0.12,0.26,-13.57,2.03,-1.05,10.17
-0.79,-0.03,-13.78,2.37,-1.16,10.25
0.13,-0.06,-14.13,2.16,-1.35,10.09
0.28,-0.50,-14.16,2.29,-1.03,10.24
0.02,-1.06,-14.25,1.95,-1.05,9.80
0.04,-1.02,-14.57,2.95,-1.19,9.97
0.32,-0.32,-14.58,2.60,-1.24,9.79
0.08,0.06,-14.90,2.51,-0.89,10.09
-0.71,0.14,-14.84,2.51,-0.73,10.62
-1.59,-0.45,-15.32,2.20,-1.26,10.69
-1.03,-1.01,-15.10,2.14,-1.17,10.50
-0.50,-1.70,-15.34,2.31,-0.99,10.17
-0.80,-1.99,-15.47,2.75,-0.68,9.99
-1.12,-1.54,-15.32,2.62,-0.70,9.48
-1.27,-0.92,-15.67,2.73,-0.88,9.19
-0.84,-0.68,-15.68,2.54,-0.78,9.08
-1.11,-0.70,-15.76,2.75,-0.68,9.42
-1.01,-0.70,-15.76,2.24,-1.07,8.94
-0.74,-0.68,-15.87,2.66,-1.26,9.22
-0.09,-0.32,-15.97,2.78,-1.13,9.11
0.21,0.02,-15.91,2.77,-0.99,8.96
-0.04,1.01,-15.97,2.93,-0.62,9.06
-0.58,1.39,-15.92,2.90,-0.69,9.07
-0.90,1.72,-15.96,3.01,-0.88,9.27
-0.75,1.94,-16.03,2.64,-0.98,9.10
-0.47,1.66,-16.01,3.01,-0.74,10.29
-0.68,1.05,-16.05,2.75,-0.66,10.52
-1.49,0.16,-16.03,2.61,-0.50,10.79
-1.94,-0.65,-15.93,2.42,-0.44,10.61
-2.57,-1.49,-16.02,2.55,-0.58,10.20
-2.53,-1.90,-16.00,2.86,-1.07,9.05
-2.15,-1.26,-16.05,3.41,-1.12,9.08
-2.05,-0.16,-16.03,3.41,-1.06,8.95
-1.81,1.07,-16.21,2.72,-0.86,8.99
-1.69,1.17,-16.22,2.68,-0.85,9.39
-1.84,1.13,-16.44,2.72,-0.94,9.81
-1.68,0.89,-16.47,2.33,-1.07,9.79
-0.41,-0.35,-16.83,2.52,-1.28,9.56
0.18,-0.30,-16.82,2.85,-1.01,9.76
0.11,0.13,-16.90,2.89,-0.69,9.78
-0.41,0.27,-16.96,2.83,-0.44,9.94
-1.40,0.26,-17.07,2.83,-1.04,10.15
-1.02,0.30,-17.03,2.88,-1.30,10.29
-0.31,0.19,-16.96,2.48,-1.34,10.06
0.62,-0.38,-17.13,2.33,-1.02,9.94
0.58,-1.81,-17.05,2.83,-0.53,9.29
0.12,-1.52,-17.04,3.38,-0.70,9.10
-0.31,-0.87,-16.93,3.25,-0.99,8.54
0.24,-0.10,-16.97,3.00,-1.09,8.35
0.95,0.70,-16.84,3.00,-0.60,9.22
0.46,1.06,-16.85,3.04,-0.44,9.73
-0.43,0.70,-16.74,2.62,-0.59,9.41
-0.32,0.27,-16.75,2.45,-1.01,9.01
2.00,0.57,-16.68,3.24,-1.31,8.61
2.72,1.71,-16.60,3.42,-0.67,8.86
1.68,2.51,-16.58,3.49,-0.19,9.25
0.14,3.09,-16.63,3.15,-0.22,9.62
-0.72,2.91,-16.69,2.53,-1.08,10.28
0.03,2.03,-16.72,2.35,-1.30,10.77
0.84,0.82,-16.72,2.38,-1.17,10.91
1.08,-0.36,-16.70,2.49,-0.84,10.90
0.64,-1.61,-16.80,3.00,-0.97,9.90
1.05,-1.13,-16.74,3.12,-0.91,9.77
1.16,-0.32,-16.80,3.08,-0.75,9.71
0.66,0.01,-16.90,3.02,-0.50,10.04
-0.09,-0.25,-16.98,2.69,-0.96,10.40
0.10,-0.44,-17.01,2.76,-1.14,10.58
0.82,-0.67,-16.97,2.31,-1.24,10.26
1.05,-1.15,-17.25,2.55,-1.00,10.27
0.77,-1.33,-17.14,2.67,-0.39,10.12
-0.12,-1.27,-17.32,2.85,-0.30,9.95
-0.89,-1.04,-17.24,3.04,-0.47,9.92
-1.37,-0.45,-17.35,2.99,-0.90,9.49
-0.48,0.56,-17.41,2.75,-1.02,9.15
-0.05,0.87,-17.55,2.99,-0.62,9.45
-0.85,0.97,-17.67,3.13,-0.25,9.69
-1.90,0.97,-17.62,2.73,-0.45,9.35
-2.10,0.92,-17.85,2.61,-1.04,9.02
-0.10,1.04,-17.94,3.05,-1.28,9.35
0.16,1.49,-18.11,3.10,-0.76,9.68
-0.41,1.19,-18.09,2.61,-0.42,9.41
-0.91,0.91,-18.35,3.39,-1.16,9.82
-0.28,1.50,-18.28,3.07,-1.28,9.60
0.50,1.86,-18.35,2.90,-1.08,9.84
0.62,1.46,-18.39,2.97,-0.67,10.42
-0.65,0.64,-18.38,3.17,-0.75,10.74
-0.60,0.67,-18.21,3.27,-1.04,10.58
-0.12,0.74,-18.22,3.00,-1.02,10.21
0.16,0.65,-18.19,2.97,-0.82,10.15
-0.04,0.32,-18.16,3.04,-0.65,10.23
-1.20,0.09,-17.96,3.14,-0.82,10.40
-1.04,-0.27,-17.93,2.83,-1.09,10.06
-0.38,-0.66,-17.75,2.77,-1.18,9.95
0.71,-1.44,-17.77,2.76,-0.81,9.53
0.86,-1.49,-17.62,2.82,-0.58,9.37
0.32,-1.63,-17.65,2.97,-0.71,8.93
0.47,-1.36,-17.65,3.18,-0.92,8.60
1.68,0.40,-17.43,3.10,-1.03,8.22
1.92,1.62,-17.52,3.31,-0.57,8.69
1.52,2.54,-17.32,3.06,-0.31,8.97
0.52,2.87,-17.37,2.81,-0.40,9.17
0.08,3.11,-17.36,2.97,-0.73,9.74
0.86,2.74,-17.38,2.67,-1.11,9.77
1.59,2.11,-17.18,2.46,-0.79,9.83
1.31,1.27,-17.20,2.60,-0.45,9.91
-0.19,1.09,-17.08,3.19,-0.28,10.07
-0.60,1.13,-17.08,2.97,-0.54,9.71
-0.29,1.04,-17.01,2.94,-0.62,9.85
-0.36,0.91,-16.93,2.80,-0.64,10.03
-0.92,0.46,-16.86,2.82,-0.57,10.67
-0.89,-0.32,-16.85,2.30,-0.80,10.21
-0.23,-1.29,-16.89,2.44,-0.83,10.01
0.49,-1.72,-16.62,2.76,-0.73,9.94
0.61,-1.48,-16.63,2.94,-0.62,9.79
0.09,-0.16,-16.65,2.78,-0.63,9.56
0.37,0.21,-16.79,2.75,-0.54,9.84
0.71,0.36,-16.77,2.51,-0.29,10.10
0.36,-0.06,-16.79,2.50,-0.25,10.81
0.13,-0.22,-16.73,2.18,-0.35,10.53
-0.22,-0.74,-16.81,2.35,-0.58,10.46
0.26,-1.01,-16.84,2.61,-0.60,10.49
0.63,-1.07,-16.87,2.71,-0.10,10.03
0.14,-0.71,-16.83,3.02,-0.06,9.92
-0.42,-0.07,-16.76,2.95,-0.28,9.60
-0.67,0.61,-16.77,3.08,-0.57,9.31
-0.02,1.19,-16.77,2.87,-0.81,9.02
1.72,1.28,-16.79,2.89,-0.35,9.04
1.65,1.49,-16.86,3.00,0.02,9.27
0.86,1.44,-16.82,2.81,0.13,9.03
0.49,0.93,-16.83,2.77,-0.47,8.74
1.24,0.86,-16.78,2.97,-0.65,8.77
2.25,1.16,-16.70,3.00,-0.51,8.87
2.34,1.38,-16.74,2.84,-0.25,8.94
1.37,1.32,-16.82,2.71,-0.22,9.83
1.36,0.87,-16.86,2.45,-0.50,10.19
1.92,0.00,-16.84,2.37,-0.61,10.60
2.38,-0.91,-16.81,2.23,-0.43,10.87
1.61,-2.45,-16.88,2.47,-0.03,10.97
1.08,-2.46,-16.95,2.47,0.05,10.75
0.39,-2.31,-16.92,2.57,-0.01,10.43
-0.57,-1.87,-16.95,2.96,0.02,10.60
-2.20,-0.78,-16.86,2.66,-0.36,10.55
-2.63,-0.93,-16.91,2.66,-0.68,10.52
-2.05,-1.16,-16.79,2.27,-0.97,10.17
-1.16,-1.44,-16.92,2.26,-1.00,9.87
-0.70,-1.08,-16.95,2.80,-0.24,9.82
-1.43,-0.95,-17.04,2.67,-0.21,9.24
-1.47,-0.74,-17.05,3.03,-0.44,9.11
-1.08,-0.19,-17.02,3.19,-0.89,8.83
-0.43,0.71,-17.22,3.40,-0.97,8.87
0.82,1.93,-17.17,2.80,-0.29,9.17
-0.10,1.75,-17.25,3.25,-0.11,10.00
-1.47,1.84,-17.07,3.20,-0.61,10.23
-2.70,1.88,-16.97,3.05,-1.57,10.06
-1.83,1.74,-16.89,2.83,-2.40,9.88
-0.67,1.80,-16.90,2.92,-2.30,10.21
0.56,2.06,-16.84,2.80,-1.48,10.58
-2.56,0.99,-16.88,2.89,-0.79,11.32
-4.06,0.86,-16.85,2.95,-1.38,10.95
-4.41,0.84,-16.74,2.84,-2.12,10.45
-3.48,0.92,-16.69,2.72,-2.19,10.04
-2.45,0.83,-16.57,2.92,-1.23,10.24
-3.54,1.03,-16.52,2.93,-1.07,10.05
-4.53,1.13,-16.55,2.62,-1.51,9.31
-4.71,1.09,-16.49,2.77,-2.00,8.92
-2.91,2.12,-16.50,2.97,-2.50,8.36
-1.73,2.52,-16.42,2.94,-2.39,8.36
-0.68,2.84,-16.32,2.60,-2.10,8.58
-0.41,2.93,-16.35,2.64,-1.74,9.20
-1.50,2.74,-16.27,2.58,-1.69,9.82
-1.45,2.26,-16.33,2.37,-1.98,9.46
-0.70,1.78,-16.18,2.20,-2.26,9.16
-0.17,1.67,-16.30,2.67,-2.44,9.33
1.09,1.82,-16.12,2.58,-1.77,9.58
0.84,1.22,-16.13,2.34,-1.51,9.64
0.66,0.65,-16.08,2.35,-1.41,9.64
0.29,0.32,-15.95,2.52,-1.60,9.68
-0.09,0.41,-15.99,2.34,-1.79,9.55
0.22,0.18,-15.85,2.17,-1.98,9.38
0.21,0.07,-15.90,2.37,-1.97,9.39
0.72,0.36,-15.67,2.73,-1.76,9.54
0.03,0.63,-15.94,1.90,-1.37,9.25
-0.25,0.13,-15.81,2.25,-1.50,9.58
-0.15,0.17,-15.82,2.40,-1.88,9.56
0.44,0.63,-15.85,2.58,-1.95,9.32
0.79,1.06,-15.56,2.65,-1.73,9.53
-0.14,1.59,-15.74,2.52,-1.32,9.93
-0.89,1.97,-15.65,2.64,-1.61,10.03
-0.70,2.67,-15.67,2.82,-1.87,10.11
-0.68,2.95,-15.44,2.53,-2.00,10.06
0.01,2.30,-15.49,2.49,-1.71,10.32
-0.31,1.99,-15.40,2.32,-1.64,10.53
-1.03,1.63,-15.72,2.39,-1.57,10.65
-1.94,-0.04,-15.46,1.65,-1.74,10.32
-2.17,-1.14,-15.67,1.98,-2.00,10.36
-1.67,-1.45,-15.55,2.49,-2.04,10.35
-1.08,-1.32,-15.50,2.46,-1.87,9.98
-1.64,-1.31,-15.34,2.28,-1.48,9.78
-2.20,-1.03,-15.43,2.35,-1.73,9.81
-2.35,-0.41,-15.40,2.25,-2.02,9.84
-1.66,-0.08,-15.41,1.88,-2.07,9.75
-1.26,-0.47,-15.46,1.78,-1.72,9.74
-1.98,-1.24,-15.47,1.93,-1.46,9.20
-2.02,-1.07,-15.43,2.23,-1.80,8.85
-1.91,-0.47,-15.50,2.29,-2.16,8.71
-0.74,1.70,-15.55,2.52,-1.84,9.20
-1.09,2.06,-15.56,2.26,-1.45,9.56
-1.91,2.19,-15.55,2.11,-1.29,9.69
-2.56,2.20,-15.42,2.81,-1.58,10.26
-2.36,3.09,-15.28,2.22,-2.32,9.27
-1.34,2.83,-15.28,2.28,-2.22,9.10
-0.95,2.76,-15.32,2.45,-1.67,9.45
-1.45,2.77,-15.29,2.73,-1.23,9.71
-2.95,2.61,-15.17,2.76,-1.40,9.76
-2.81,1.96,-15.02,2.47,-2.61,9.27
-1.30,1.98,-14.91,2.52,-2.59,9.30
0.07,2.44,-14.81,2.42,-2.10,9.62
-1.56,1.44,-14.97,2.08,-1.25,10.00
-2.28,0.67,-14.93,2.11,-1.75,9.75
-1.61,-0.17,-14.76,2.01,-2.41,9.14
-0.28,-0.57,-14.46,2.47,-2.60,9.13
0.60,0.46,-14.52,2.25,-1.63,9.04
-0.02,0.98,-14.49,1.74,-1.39,8.94
-0.53,1.10,-14.57,1.88,-1.46,9.46
-1.21,1.09,-14.56,2.16,-1.67,10.00
-1.02,1.07,-14.44,1.94,-1.93,9.84
-0.31,0.60,-14.24,1.72,-2.00,9.50
-0.08,0.74,-14.34,1.48,-1.81,9.12
-0.55,0.87,-14.49,1.94,-1.57,9.58
-1.31,1.03,-14.40,1.78,-1.60,9.61
-1.67,0.84,-14.42,2.08,-1.90,9.85
-1.27,0.97,-14.31,2.13,-2.16,9.80
-0.79,1.10,-14.20,1.95,-2.10,9.72
-0.85,1.11,-14.29,1.77,-1.73,9.86
-1.20,0.93,-14.28,1.99,-1.77,9.90
-1.29,0.86,-14.23,2.13,-2.00,9.78
-0.85,0.96,-14.16,2.24,-2.17,9.45
-0.07,1.27,-13.98,2.29,-2.22,9.36
0.71,1.64,-13.94,1.94,-1.95,9.10
0.65,1.97,-13.94,2.41,-1.95,9.50
0.54,2.48,-13.87,2.44,-2.03,9.51
1.47,3.30,-13.72,2.36,-2.12,9.12
1.93,3.60,-13.63,2.40,-1.97,9.21
2.04,4.37,-13.65,2.33,-1.78,9.53
1.46,4.91,-13.74,2.06,-1.70,9.82
0.85,3.50,-13.87,1.66,-2.25,10.30
1.28,2.73,-13.91,1.66,-2.37,10.34
1.94,2.01,-13.93,1.54,-2.21,10.25
1.99,1.10,-13.99,1.38,-1.78,10.01
1.69,0.48,-14.14,1.59,-1.44,10.11
0.07,-0.01,-14.27,1.58,-1.83,10.09
0.22,-0.18,-14.38,1.38,-2.16,9.75
0.87,-0.47,-14.34,1.31,-2.25,9.49
1.62,0.35,-14.52,1.96,-1.74,9.95
1.31,0.77,-14.51,1.45,-1.46,9.53
0.68,0.85,-14.73,1.65,-1.42,9.55
0.14,1.06,-14.75,1.74,-1.74,9.52
0.41,2.51,-15.00,2.20,-2.50,9.60
1.33,2.92,-14.94,1.54,-2.27,9.32
1.47,2.76,-15.15,1.62,-1.79,9.65
0.63,2.40,-15.24,1.76,-1.35,10.17
-1.05,1.09,-15.44,1.77,-1.99,9.82
-0.59,0.55,-15.45,1.75,-2.49,9.56
0.53,0.37,-15.57,1.80,-2.49,9.53
1.27,0.20,-15.53,1.89,-1.92,9.97
-0.60,-0.72,-15.72,1.56,-1.17,10.82
-2.14,-1.13,-15.71,1.89,-1.56,11.23
-2.62,-1.25,-15.73,1.86,-2.36,10.96
-1.63,-1.22,-15.70,1.71,-2.67,10.43
-0.44,-0.55,-15.60,2.27,-1.75,10.25
-1.59,0.21,-15.58,2.23,-1.53,10.17
-2.75,1.00,-15.60,2.18,-1.82,9.94
-2.72,1.79,-15.59,2.18,-2.26,9.72
-0.70,2.67,-15.39,2.31,-2.16,9.16
-0.42,3.12,-15.24,2.52,-1.74,9.15
-1.16,3.63,-15.37,2.48,-1.49,8.91
-2.06,4.18,-15.44,2.29,-1.59,8.60
-1.61,4.43,-15.60,2.20,-2.47,8.88
-0.88,4.41,-15.51,2.44,-2.34,9.86
-0.85,3.78,-15.53,1.93,-2.20,10.22
-1.05,2.31,-15.56,1.34,-2.11,10.25
-0.60,-0.24,-15.74,1.71,-2.18,10.04
-0.51,-0.27,-15.79,2.22,-2.10,10.05
-0.63,0.10,-15.78,2.18,-2.20,10.06
-0.83,0.30,-15.89,1.97,-2.28,10.18
-0.57,0.36,-15.91,1.76,-2.36,10.49
0.14,0.12,-16.01,1.82,-1.77,10.08
-0.04,0.45,-16.15,1.71,-1.60,9.68
-0.41,0.82,-16.46,1.50,-1.68,9.02
0.03,1.18,-16.69,1.85,-1.72,9.06
1.44,1.17,-17.14,1.38,-1.14,8.40
1.56,1.11,-17.38,1.67,-0.81,8.60
1.07,1.04,-17.65,1.60,-0.77,8.49
0.83,0.58,-18.23,1.54,-1.57,8.71
1.94,0.17,-18.52,1.37,-1.59,8.99
3.05,-0.34,-18.73,1.31,-1.18,9.54
3.14,-1.21,-19.08,1.32,-0.81,10.04
1.99,-2.54,-19.46,1.45,-0.56,10.61
1.06,-2.87,-19.73,1.63,-0.46,10.53
0.35,-3.00,-19.86,1.72,-0.58,10.23
-0.12,-2.96,-20.09,1.89,-0.86,9.93
-0.16,-2.46,-20.26,2.14,-0.92,9.98
-0.35,-1.50,-20.51,2.09,-0.79,9.64
-0.58,-1.41,-20.55,2.15,-0.81,9.66
-1.00,-1.23,-20.77,2.30,-1.00,9.49
0.03,-0.46,-20.93,2.38,-1.23,9.03
0.67,-0.20,-21.15,2.43,-0.98,8.88
1.03,0.07,-21.17,2.68,-0.61,9.01
0.74,0.24,-21.24,2.70,-0.56,8.88
1.01,0.52,-21.49,2.74,-1.04,8.66
1.87,0.73,-21.68,2.66,-1.20,8.73
2.63,0.97,-21.83,2.85,-0.93,9.46
2.81,0.80,-21.81,2.66,-0.55,10.06
2.24,0.07,-22.04,2.28,-0.39,10.46
1.21,-1.82,-22.09,2.33,-0.76,11.18
0.90,-2.34,-22.25,2.63,-0.91,11.06
0.99,-2.52,-22.18,2.80,-0.79,10.94
0.37,-2.12,-22.41,2.94,-0.51,10.60
-0.36,-1.55,-22.28,3.06,-0.51,10.84
-0.73,-0.62,-22.32,2.85,-0.41,10.89
-1.20,-0.12,-22.30,2.87,-0.26,11.15
-2.49,-0.27,-22.24,2.54,-0.35,10.29
-2.89,-0.04,-22.22,3.16,-0.62,10.20
-2.78,0.83,-22.19,3.07,-0.90,9.51
-2.55,1.62,-22.31,3.07,-0.98,8.99
-2.13,2.22,-22.26,3.04,-0.82,8.92
-2.32,3.26,-22.39,3.20,-0.53,9.62
-2.98,3.57,-22.36,2.81,-0.73,9.78
-3.16,3.18,-22.50,2.28,-1.20,9.56
-0.72,1.57,-22.62,2.45,-1.49,9.68
0.46,1.17,-22.70,2.59,-0.82,9.85
0.22,0.80,-22.69,2.54,-0.17,9.86
-1.09,0.30,-22.82,2.48,-0.07,9.59
-1.45,0.38,-22.84,2.74,-1.37,9.03
0.14,0.76,-22.83,2.59,-1.49,8.88
1.73,1.06,-22.81,2.44,-0.93,9.03
1.86,0.86,-22.81,2.32,-0.36,9.32
0.77,0.66,-22.86,2.38,-0.21,9.52
0.19,0.77,-22.73,2.55,-1.28,9.50
1.44,1.01,-22.67,2.42,-1.44,9.47
2.38,1.01,-22.58,2.35,-0.93,9.82
1.10,0.36,-22.55,2.15,0.00,10.22
-0.13,-0.05,-22.44,2.46,-0.28,10.42
-0.49,-0.18,-22.36,2.32,-0.79,10.09
-0.01,-0.32,-22.26,2.40,-1.04,9.95
0.78,-0.37,-22.00,2.31,-0.35,10.24
-0.09,-0.46,-21.91,2.27,-0.06,10.51
-1.26,-0.88,-21.77,2.09,-0.23,10.38
-1.49,-1.29,-21.75,2.22,-0.54,10.29
-1.08,-1.46,-21.53,2.51,-0.72,10.15
-0.50,-1.17,-21.11,2.57,-0.81,9.15
-0.23,-0.58,-20.81,2.92,-0.77,8.90
0.16,0.43,-20.61,2.97,-0.65,8.59
0.75,2.59,-20.10,3.04,-0.25,8.45
0.55,3.59,-19.86,3.05,-0.14,8.46
0.25,4.49,-19.62,3.07,-0.25,8.45
0.33,5.15,-19.34,2.88,-0.51,8.34
2.09,5.49,-18.86,2.73,-0.62,8.35
2.77,5.48,-18.57,2.71,-0.27,8.63
2.63,5.37,-18.26,2.62,0.09,8.98
1.83,5.12,-18.01,2.74,0.09,9.42
1.30,4.71,-17.34,2.45,-0.72,10.10
2.26,4.24,-16.98,2.01,-0.78,10.32
3.22,3.12,-16.59,1.83,-0.49,10.72
3.57,2.12,-16.24,1.99,-0.11,10.96
2.32,1.71,-15.44,2.32,-0.06,10.71
1.88,2.12,-15.07,2.27,-0.34,10.34
1.86,2.75,-14.72,2.10,-0.58,10.20
2.42,3.43,-14.39,1.83,-0.47,10.31
2.46,3.38,-13.82,1.19,0.14,10.92
2.00,2.50,-13.54,1.04,0.12,10.69
2.15,1.90,-13.23,1.47,-0.05,10.58
2.91,1.87,-12.88,1.43,-0.02,10.12
3.40,2.21,-12.44,1.30,0.61,9.86
2.55,2.49,-12.24,1.49,0.65,10.33
1.27,2.80,-12.03,1.17,0.58,10.48
0.27,2.61,-11.78,0.86,0.11,10.53
0.29,1.80,-11.52,0.64,-0.56,10.56
2.12,0.80,-11.06,1.00,-0.33,10.77
2.02,0.67,-10.84,0.78,0.24,10.59
0.88,0.23,-10.76,0.60,0.46,10.34
0.29,-0.32,-10.54,0.86,-0.02,9.87
1.39,-0.47,-10.33,0.79,0.06,9.51
2.42,-0.76,-10.17,0.70,0.55,9.31
2.41,-0.96,-10.06,0.83,1.02,9.27
1.42,-0.58,-9.92,1.15,1.05,9.47
-0.00,0.59,-9.76,0.99,0.42,9.38
0.10,0.73,-9.66,0.67,0.01,9.37
0.84,0.51,-9.56,0.66,-0.14,9.54
1.50,-0.07,-9.31,0.87,-0.13,9.63
1.75,-0.40,-9.20,0.77,-0.14,9.02
2.46,-0.56,-9.10,0.82,-0.17,8.54
3.24,-0.52,-9.07,1.03,-0.01,8.23
4.41,0.49,-8.88,1.54,0.99,8.73
3.85,1.10,-8.74,1.56,1.25,9.30
2.99,1.43,-8.62,1.35,1.16,9.79
2.55,1.42,-8.48,0.81,0.92,10.13
3.31,0.22,-8.30,0.63,0.26,11.02
3.91,-0.63,-8.22,0.49,0.32,11.09
4.04,-1.40,-8.08,0.80,0.59,11.25
3.44,-1.90,-7.94,1.06,0.77,11.34
2.50,-2.04,-7.85,0.98,0.65,11.09
2.36,-2.48,-7.55,0.48,0.23,10.43
3.27,-2.84,-7.51,0.43,0.47,10.31
3.56,-3.16,-7.41,0.89,0.93,10.66
2.83,-2.81,-7.11,0.83,1.51,10.37
1.99,-2.75,-7.03,0.82,1.59,10.10
1.50,-2.28,-6.92,1.06,1.47,9.88
1.12,-1.49,-6.78,1.22,1.21,9.78
0.88,0.03,-6.55,1.10,0.68,9.81
0.92,0.32,-6.47,1.07,0.49,9.96
1.19,0.63,-6.45,0.90,0.34,10.02
1.79,0.71,-6.47,0.60,0.39,9.80
2.37,0.23,-6.43,0.74,0.64,9.74
2.74,-0.30,-6.53,0.96,1.12,9.40
2.83,-0.06,-6.47,1.25,1.22,9.38
2.97,0.08,-6.49,1.05,1.30,9.07
3.32,-0.20,-6.65,0.84,1.49,9.11
3.27,-0.13,-6.65,1.00,1.48,9.35
2.87,-0.11,-6.75,0.86,1.33,9.55
2.78,-0.07,-6.84,0.73,1.07,9.59
3.70,-0.35,-6.97,0.77,0.82,10.10
4.11,-0.42,-7.00,0.87,1.04,10.41
3.85,-0.55,-7.02,0.79,1.21,10.52
3.50,-0.49,-7.18,0.78,1.36,10.49
3.06,-0.27,-7.33,0.63,1.43,10.40
2.89,-0.37,-7.48,0.69,1.48,10.49
3.06,-0.47,-7.52,0.98,1.51,10.73
3.08,-0.53,-7.47,1.02,1.57,10.88
2.05,-0.65,-7.52,0.59,1.87,10.80
0.94,-1.24,-7.60,0.46,1.70,10.60
0.31,-1.65,-7.83,0.71,1.18,10.60
0.39,-1.78,-7.98,0.78,0.68,10.44
2.24,-2.47,-7.89,0.70,0.97,10.53
1.95,-2.91,-7.93,0.74,1.51,10.73
0.98,-3.01,-7.99,0.71,1.68,10.64
0.40,-3.11,-8.06,0.61,1.53,10.19
0.46,-3.39,-8.10,0.63,1.22,9.65
1.80,-2.55,-8.13,1.49,1.35,9.62
1.91,-1.71,-8.06,1.27,1.78,9.50
1.23,-1.33,-8.11,0.82,2.07,9.33
-0.42,-1.17,-8.17,1.17,1.32,9.54
-0.29,-0.56,-8.19,1.33,0.80,9.67
0.37,-0.22,-8.17,1.15,0.64,9.62
1.13,-0.31,-8.15,0.98,0.91,9.78
0.34,-0.48,-8.11,1.14,1.74,10.19
-0.65,-0.53,-8.10,1.33,1.60,10.08
-1.01,-0.47,-8.05,1.32,1.27,9.70
-0.51,-0.24,-7.98,1.44,1.12,9.38
0.30,0.41,-7.84,1.52,1.67,9.56
-0.20,0.59,-7.78,1.61,1.94,9.84
-1.09,0.81,-7.62,1.60,1.87,10.05
-1.80,1.08,-7.53,1.57,1.47,10.15
-1.26,1.29,-7.28,1.41,0.70,10.19
-0.56,1.25,-7.22,1.38,0.85,10.45
-0.52,1.16,-7.14,1.21,1.27,10.67
-1.08,0.82,-7.04,1.12,1.51,10.72
-2.04,-0.25,-6.85,1.09,1.26,10.29
-1.84,-0.46,-6.80,1.21,0.94,10.00
-1.04,-0.40,-6.67,1.22,1.01,9.84
-0.47,-0.27,-6.56,1.04,1.40,9.79
-0.82,-0.24,-6.57,1.09,1.82,9.93
-2.34,-0.00,-6.44,0.95,1.46,9.89
-2.36,0.17,-6.36,1.01,0.97,9.81
-1.48,0.43,-6.17,1.00,0.63,9.86
-0.35,1.21,-6.05,0.90,1.19,10.20
-0.64,1.27,-5.93,0.58,1.57,10.03
-1.41,1.02,-5.99,0.55,1.56,9.87
-1.64,1.00,-5.92,0.88,1.28,9.73
-0.39,1.60,-5.70,0.89,1.10,9.12
0.42,1.63,-5.52,0.68,1.55,8.91
0.39,1.46,-5.39,0.73,1.97,9.14
-0.19,1.50,-5.38,0.79,2.15,9.24
-0.98,1.45,-5.02,0.89,1.43,8.85
-0.20,1.51,-4.89,0.88,1.08,8.59
0.82,1.71,-4.71,0.94,1.11,8.66
1.41,1.91,-4.54,0.83,1.41,8.78
1.29,1.83,-4.40,0.71,1.72,8.94
0.29,1.57,-4.08,0.85,1.41,9.36
0.59,1.46,-3.89,0.86,1.11,9.31
1.77,1.36,-3.60,0.60,1.07,9.25
2.51,0.71,-3.33,0.58,1.97,9.69
1.85,0.63,-3.18,0.68,2.23,9.98
0.70,0.49,-3.01,0.65,2.15,9.99
0.03,0.45,-2.77,0.60,1.82,9.99
0.39,0.37,-2.30,0.49,1.30,10.07
1.06,0.46,-2.14,0.38,1.43,10.29
0.87,0.38,-2.03,0.30,1.76,10.45
0.05,0.29,-1.86,0.36,1.96,10.75
-1.11,0.48,-1.58,0.39,1.45,10.46
-0.91,0.71,-1.37,0.50,1.22,10.35
-0.35,0.97,-1.22,0.43,1.33,10.13
-0.07,1.11,-1.10,0.15,1.57,9.87
-0.60,1.10,-0.92,0.46,1.78,9.74
-0.68,1.41,-0.82,0.56,1.62,9.57
-0.37,1.84,-0.74,0.51,1.41,9.36
0.17,2.31,-0.57,0.49,1.37,9.44
0.39,2.62,-0.42,0.21,1.58,9.49
-0.54,2.42,-0.32,0.06,1.54,10.15
-0.46,1.80,-0.21,-0.15,1.15,10.01
0.30,1.16,-0.09,-0.25,1.01,10.06
1.29,0.58,-0.07,-0.14,1.23,10.11
1.08,0.01,0.40,0.23,2.08,10.34
-0.24,0.29,0.41,0.12,1.96,9.85
-0.74,0.65,0.55,-0.01,1.58,9.56
0.13,0.95,0.61,-0.06,1.35,9.80
0.68,0.83,0.82,-0.22,1.77,10.10
0.39,0.44,0.95,-0.34,1.95,10.20
-0.15,-0.34,1.04,-0.43,1.86,9.97
-0.18,-0.94,1.29,-0.16,1.66,9.79
-0.06,-0.56,1.47,-0.24,1.33,9.14
0.58,-0.19,1.60,-0.05,1.54,9.25
0.44,0.10,1.60,0.12,1.85,9.63
-0.43,0.40,1.61,-0.12,1.97,9.52
-1.16,0.93,1.83,-0.36,1.36,9.83
-0.70,0.50,1.78,-0.58,1.36,9.59
0.19,0.13,1.99,-0.19,1.55,9.87
-0.09,-0.37,1.97,-0.35,2.01,9.21
-0.55,0.08,1.94,-0.05,1.96,9.14
-1.08,0.44,1.86,0.21,1.78,9.02
-1.00,1.16,2.02,0.07,1.82,9.35
-1.75,1.68,2.04,-0.18,1.93,10.27
-2.38,1.23,2.06,-0.15,1.74,10.60
-2.55,0.99,2.07,-0.39,1.23,10.30
-1.82,0.78,2.04,-0.71,0.99,9.87
-0.71,0.79,2.01,-0.18,1.35,10.12
-2.14,1.30,1.86,0.02,2.36,10.36
-3.48,1.26,1.95,-0.07,2.23,10.31
-3.99,1.15,1.81,-0.35,1.80,10.03
-2.53,1.14,1.97,-0.09,1.56,9.92
-2.83,1.56,1.76,-0.47,1.81,9.47
-3.36,1.45,1.73,0.10,1.91,9.69
-3.38,1.45,1.71,-0.28,1.46,9.56
-1.75,1.23,1.83,-0.10,1.39,9.80
-1.65,0.93,1.65,-0.46,1.50,9.71
-2.08,0.36,1.56,-0.44,1.63,9.93
-1.64,-0.05,1.76,-0.55,1.46,9.89
-0.16,-1.16,1.61,-0.35,1.48,9.27
0.78,-0.96,1.81,-0.09,1.58,9.11
-0.13,-0.63,1.56,-0.29,1.73,8.88
-0.10,-0.04,1.51,-0.12,1.87,8.78
0.64,0.37,1.52,-0.50,1.66,8.86
1.12,0.43,1.58,-0.53,1.85,9.23
0.58,0.36,1.65,-0.38,1.80,9.61
0.21,0.20,1.50,-0.43,1.43,9.51
1.72,0.25,1.61,-0.32,1.09,9.27
2.89,-0.03,1.59,-0.43,1.50,9.35
2.84,-0.18,1.64,-0.37,1.96,9.50
2.04,-0.03,1.57,0.08,2.05,9.59
1.60,0.47,1.73,-0.18,1.42,9.04
2.73,0.36,1.82,-0.23,1.45,9.17
3.34,0.12,1.90,-0.23,1.86,9.38
2.93,0.06,1.82,-0.01,2.13,9.60
1.78,0.13,1.91,-0.28,1.52,8.92
2.37,0.27,1.88,0.38,1.42,9.30
3.29,0.78,2.09,0.45,1.75,9.64
2.89,1.22,2.20,0.12,2.08,9.90
0.66,1.38,2.19,-0.48,1.83,10.17
0.93,1.01,2.18,-0.26,1.51,10.48
1.71,1.01,2.33,-0.06,1.57,11.21
1.82,0.78,2.29,-0.38,2.05,11.16
-0.02,-0.98,2.33,-0.57,2.02,10.70
-0.41,-1.11,2.29,-0.22,1.71,10.59
-0.31,-0.56,2.35,-0.12,1.52,10.58
-0.12,-0.32,2.31,-0.49,1.76,10.41
-0.79,-0.92,2.29,-0.46,1.94,10.76
-1.49,-0.88,2.22,-0.45,1.81,10.70
-1.24,-0.38,2.22,-0.44,1.49,10.38
-0.54,-0.38,2.17,-0.45,1.45,10.10
0.01,0.13,2.12,-0.13,2.05,10.48
-0.97,0.53,2.09,-0.18,2.24,10.40
-1.54,0.68,2.09,-0.44,2.15,10.24
-1.96,0.65,2.01,-0.35,1.92,10.53
-2.25,0.33,2.01,-0.47,1.53,10.36
-1.88,-0.21,2.03,-0.66,1.59,10.10
-1.44,-0.88,2.03,-0.52,1.75,9.85
-1.90,-1.32,2.03,0.02,1.99,9.89
-3.06,-1.19,2.06,-0.38,1.84,8.72
-2.61,-1.12,2.04,-0.09,1.75,8.71
-2.28,-1.10,2.11,-0.07,1.75,8.62
-2.41,-0.79,2.18,-0.10,1.94,8.62
-3.25,0.16,2.17,-0.19,1.96,8.83
-3.55,0.49,2.06,-0.17,1.60,8.87
-2.80,0.75,2.01,-0.48,1.40,8.61
-1.74,0.90,2.10,-0.54,1.54,8.78
-1.59,0.91,1.99,-0.21,1.60,9.27
-1.46,1.08,1.96,-0.36,1.29,9.00
-0.41,1.38,1.86,-0.15,1.33,9.30
0.29,1.64,1.90,-0.20,1.76,9.57
-1.25,1.35,1.75,-0.32,1.91,10.23
-0.98,1.01,1.81,-0.26,1.45,10.22
-0.37,0.77,1.89,-0.16,1.07,10.41
0.63,0.81,1.88,-0.36,1.29,10.38
1.08,-0.12,1.85,-0.31,2.03,10.59
0.18,-0.20,1.75,-0.32,1.94,10.48
-0.31,-0.06,1.77,-0.09,1.51,10.13
0.22,-0.07,1.83,-0.22,1.17,9.88
1.79,-0.89,1.83,-0.25,1.70,9.70
1.64,-1.17,1.89,-0.46,1.88,9.47
1.40,-1.40,1.78,-0.55,1.79,8.85
1.81,-1.50,1.88,-0.26,1.55,8.69
2.85,-1.07,1.82,-0.18,1.70,8.29
3.02,-0.79,1.94,-0.19,1.84,8.40
2.93,-0.48,1.87,-0.27,1.90,8.37
2.71,0.04,1.87,-0.04,1.85,8.62
2.71,1.64,1.97,-0.29,1.72,9.08
2.69,1.76,1.91,-0.46,1.66,9.33
2.78,1.73,1.85,-0.08,1.75,10.20
2.81,1.85,1.82,-0.20,1.90,10.49
2.29,1.66,1.81,-0.34,2.02,10.66
1.83,0.43,1.83,-0.44,1.90,10.57
1.31,-0.01,1.83,-0.03,1.86,10.85
1.15,0.29,1.91,0.09,1.89,10.88
-0.01,-0.14,1.81,-0.52,2.11,10.88
-0.51,-0.46,1.85,-0.39,2.08,11.19
-1.25,-0.57,1.84,-0.01,1.90,11.61
-1.89,-0.73,1.90,-0.22,1.67,11.47
-1.63,-1.58,1.82,-0.66,1.14,10.49
-0.74,-1.93,1.86,-0.50,1.27,10.12
-0.02,-1.71,1.78,-0.16,1.75,9.97
-0.06,-1.42,1.72,0.13,2.21,9.88
-1.97,-0.22,1.57,-0.53,1.84,9.31
-1.90,-0.11,1.58,-0.23,1.42,9.55
-0.96,0.22,1.48,-0.51,1.14,9.90
-0.05,0.00,1.28,-0.83,1.49,9.71
0.21,-1.11,1.25,-0.45,1.60,9.87
0.13,-0.90,1.05,-0.27,1.48,9.24
1.02,-0.07,1.27,0.15,1.42,9.16
1.37,0.71,1.08,0.04,1.59,9.16
0.37,1.70,1.00,0.09,2.04,10.00
-0.33,1.39,0.80,-0.35,1.72,9.86
0.19,0.83,0.86,-0.53,1.59,9.80
0.90,0.33,0.91,-0.32,1.40,9.95
1.20,-0.63,0.77,-0.10,1.93,9.58
0.71,-0.97,0.85,0.19,2.02,9.61
-0.40,-0.91,0.71,0.07,1.98,9.29
-0.88,-0.56,0.70,0.10,1.82,9.08
-0.70,-0.21,0.74,0.00,1.71,9.21
-0.96,-0.36,0.49,-0.11,1.72,9.69
-0.87,-0.39,0.59,0.06,1.83,10.07
-0.99,-0.57,0.58,-0.32,1.79,9.72
-1.07,-0.88,0.57,-0.17,1.49,9.50
-0.65,-0.40,0.43,-0.06,1.53,9.38
-0.54,0.19,0.43,0.33,1.82,9.76
-0.84,0.69,0.45,0.15,1.97,9.85
-1.87,1.15,0.35,0.07,1.88,10.20
-2.32,1.39,0.29,0.15,1.53,10.36
-1.94,1.79,0.21,0.13,1.31,10.71
-1.51,1.79,0.21,-0.40,1.42,10.70
-1.46,1.01,0.10,-0.33,1.63,10.67
-1.62,0.06,0.08,-0.12,1.70,10.41
-1.83,-0.03,0.02,-0.04,1.62,10.03
-1.57,-0.10,-0.01,0.20,1.57,10.14
-1.56,-0.66,-0.01,0.00,1.59,9.81
-1.26,-1.02,0.01,-0.34,1.54,9.49
-0.91,-1.55,-0.14,-0.53,1.52,8.92
-0.27,-1.80,-0.15,0.03,1.54,8.94
-0.34,-1.34,-0.13,0.20,1.64,8.74
-0.23,-0.98,-0.05,0.07,1.61,8.79
-0.23,-0.92,-0.21,-0.37,1.71,8.59
-0.23,-0.73,-0.09,0.04,1.78,8.96
-0.40,-0.17,-0.16,0.05,1.62,9.47
-0.46,0.14,-0.08,-0.15,1.82,9.59
-0.60,-0.09,-0.16,-0.06,1.81,9.63
-1.08,-0.28,-0.22,0.12,1.80,9.63
-1.06,0.23,0.00,0.13,1.37,8.98
-0.88,0.70,-0.11,0.53,1.48,9.15
-0.18,1.47,0.01,0.57,1.59,9.18
-0.25,1.70,0.11,0.21,1.79,9.33
-1.94,1.81,0.06,0.32,1.67,10.29
-2.11,1.37,0.13,0.04,1.23,10.17
-0.79,0.86,0.30,-0.14,1.03,10.49
0.20,0.03,0.25,-0.35,1.26,10.38
0.04,-1.11,0.26,0.17,1.97,10.69
-0.75,-1.04,0.28,-0.04,1.95,10.20
-1.46,-1.33,0.35,-0.14,1.71,10.08
-1.42,-1.43,0.32,-0.04,1.41,10.10
-0.15,-1.49,0.56,-0.26,1.41,9.65
-0.27,-1.29,0.40,-0.44,1.35,9.50
-0.06,-1.13,0.27,0.10,1.36,9.33
0.41,-0.60,0.31,0.22,1.34,9.33
1.13,0.29,0.31,-0.17,1.52,8.66
1.22,0.33,0.29,0.30,1.62,9.17
0.85,0.68,0.12,0.16,1.57,9.06
1.01,1.05,0.24,-0.18,1.30,8.93
1.94,0.92,0.28,-0.12,1.21,8.91
2.36,0.43,0.09,0.13,1.99,9.90
1.12,0.39,0.18,0.25,1.82,10.06
0.98,0.28,0.15,-0.13,1.54,9.81
1.70,0.26,0.25,0.19,1.35,10.19
2.19,0.55,0.29,-0.06,1.81,10.21
1.33,0.34,0.47,0.32,1.96,10.82
0.08,0.19,0.22,-0.12,1.73,10.50
0.44,0.22,0.36,0.27,1.10,10.43
0.94,0.29,0.31,0.09,1.52,10.54
0.45,0.29,0.43,-0.01,2.04,10.58
-0.72,0.21,0.47,0.11,1.94,10.52
-1.08,0.37,0.42,-0.16,1.55,9.97
-0.51,1.31,0.35,0.51,1.24,10.60
-0.10,1.61,0.45,-0.14,1.48,10.46
-0.49,0.92,0.55,-0.27,1.55,10.59
-0.45,-0.24,0.45,-0.42,1.43,10.21
-0.24,-0.85,0.49,-0.17,1.26,10.13
-0.03,-1.11,0.48,-0.36,1.41,10.11
-0.23,-1.86,0.46,-0.50,1.52,9.75
0.14,-3.12,0.41,-0.45,1.39,9.26
0.50,-3.35,0.56,-0.17,1.48,8.93
0.64,-2.68,0.58,0.42,1.41,9.57
0.87,-1.74,0.32,-0.17,1.60,9.23
0.43,-1.55,0.43,-0.81,1.59,8.94
1.26,-2.00,0.23,-0.12,1.28,9.60
1.11,-1.52,0.32,-0.10,1.11,9.90
1.43,-1.34,0.24,-0.36,0.99,9.43
2.20,-1.97,0.37,-0.46,0.99,9.43
4.50,-2.01,0.25,0.37,1.03,9.31
5.80,-0.78,0.57,1.00,1.39,9.78
5.68,1.23,0.58,1.33,1.62,10.23
3.85,5.66,0.20,0.59,2.20,10.41
1.66,6.41,0.04,-0.10,2.18,10.93
-0.77,5.54,-0.49,-0.90,1.71,11.17
-1.22,3.04,-0.68,-0.56,1.21,11.27
0.51,-0.13,-0.18,-0.42,0.78,11.05
4.93,-4.64,0.70,0.07,0.97,9.82
5.82,-4.33,1.03,0.36,1.21,9.81
4.72,-3.48,0.66,0.09,1.43,9.26
2.76,-1.81,-0.06,-0.47,2.43,10.02
1.02,-1.80,-0.36,-0.14,2.64,10.93
-1.02,-1.98,-0.26,0.05,2.67,11.69
-3.87,-2.39,0.13,-0.11,2.10,11.62
-4.57,-3.22,0.42,-0.84,0.97,10.03
-3.24,-2.82,0.15,-0.46,0.66,10.10
-1.84,-1.97,-0.13,-0.33,1.09,10.80
-1.32,-1.70,-0.43,-1.28,2.02,11.69
-6.33,-3.77,-0.95,0.84,2.51,13.38
-8.65,-3.49,-0.52,0.16,1.90,11.86
-11.18,-2.11,-0.38,0.04,1.02,9.81
-11.23,-0.56,-0.55,1.08,0.72,8.23
-6.69,1.89,-0.96,0.38,0.94,7.49
-6.29,2.88,-1.21,1.77,1.15,9.24
-6.42,3.40,-1.14,1.22,1.38,10.63
-7.60,3.80,-1.24,-0.78,1.55,11.54
-9.31,0.47,-1.61,-1.26,0.73,11.55
-7.64,-2.25,-1.74,-1.34,0.64,9.77
-5.40,-5.01,-1.70,-0.65,1.02,7.75
-3.20,-6.81,-1.58,0.16,0.93,6.42
-2.48,-6.78,-1.99,0.99,0.22,4.00
-0.62,-4.43,-1.98,1.14,0.24,3.79
-0.24,-1.91,-1.53,2.17,0.40,4.69
3.13,1.68,-2.01,2.10,0.79,5.87
5.27,4.97,-2.42,0.71,1.48,7.18
3.48,5.75,-2.14,0.16,1.95,11.16
0.34,2.65,-2.54,-1.19,1.27,10.52
0.06,-0.68,-2.51,-1.39,0.78,9.12
7.18,-5.67,-1.28,-0.34,-0.25,6.58
9.54,-6.39,-1.53,0.81,-0.22,6.99
11.44,-5.50,-1.94,1.33,0.54,7.87
12.31,-3.52,-1.75,1.83,1.19,9.89
11.00,1.70,-2.10,1.07,1.64,12.37
10.17,2.32,-2.12,0.25,2.75,11.60
9.13,1.15,-1.82,0.06,2.80,11.22
7.50,-0.81,-1.47,-0.24,2.49,10.12
3.82,-2.23,-1.39,0.18,1.79,9.86
1.16,-1.04,-1.54,1.56,1.20,10.99
2.10,0.66,-1.63,0.83,1.24,11.63
3.25,1.66,-1.65,0.49,1.46,12.46
0.26,-0.58,-1.50,0.18,1.49,13.60
-2.17,-2.09,-1.39,0.28,0.77,12.93
-1.66,-2.67,-1.26,0.63,0.57,12.11
0.89,-2.65,-1.02,0.20,0.84,10.85
0.93,-2.09,-1.22,1.28,2.02,11.87
-1.07,-0.68,-1.06,1.09,1.95,12.37
-3.63,0.04,-1.35,0.31,1.86,11.81
-5.23,0.07,-1.22,0.15,1.49,11.48
-5.77,-0.34,-1.33,0.40,0.75,11.33
-1.66,-0.28,-1.19,0.52,0.71,10.35
-1.27,-0.56,-1.09,0.55,0.86,10.32
-2.10,-0.61,-1.39,0.47,1.10,9.79
-2.31,-0.58,-1.20,0.63,0.61,8.85
-1.04,-0.31,-1.41,0.53,0.65,8.45
0.63,0.11,-1.32,0.62,0.69,8.39
1.31,0.38,-1.33,0.75,0.92,8.61
2.95,0.04,-1.23,0.55,1.03,8.50
3.06,-0.70,-1.04,0.23,0.95,8.28
2.65,-1.12,-1.15,0.69,1.06,8.90
2.33,-0.07,-1.18,0.66,1.08,10.09
2.38,0.51,-1.21,-0.02,1.27,10.34
2.41,-1.46,-1.52,-0.60,1.55,11.02
1.29,-3.00,-1.43,0.09,1.48,11.04
0.15,-2.71,-1.38,0.26,1.12,10.90
0.57,-1.24,-1.27,1.09,0.61,9.42
1.99,0.35,-1.25,1.32,0.91,9.61
1.71,1.89,-1.24,1.09,1.41,10.07
0.50,2.63,-1.31,0.43,1.82,10.42
-1.88,1.30,-1.51,0.12,1.26,10.94
-1.79,0.92,-1.40,0.97,0.75,11.30
-1.52,0.57,-1.25,0.37,0.70,10.80
-0.74,-0.23,-1.28,-0.26,0.90,9.93
-0.62,-1.72,-1.31,0.84,1.08,10.19
-0.90,-1.04,-1.35,0.50,1.20,9.97
-1.40,-1.24,-1.21,0.03,1.19,9.66
-1.13,-2.05,-1.24,-0.21,1.10,9.66
-0.83,-2.86,-1.21,0.31,0.85,9.26
-0.54,-2.47,-1.13,0.78,0.78,9.06
0.24,-1.74,-1.13,0.70,0.93,8.81
0.75,-1.12,-1.09,0.37,1.28,8.46
-0.42,0.55,-1.15,1.04,1.23,9.12
-0.39,1.59,-1.17,0.82,0.96,8.90
0.22,2.17,-1.08,0.60,0.81,9.15
0.82,2.68,-1.03,1.04,0.85,10.11
1.01,2.87,-1.05,0.63,1.03,10.49
0.76,1.07,-0.94,0.11,1.11,10.44
0.61,-0.09,-0.99,0.40,0.92,10.32
1.08,-0.56,-0.94,0.32,0.83,9.67
1.26,-0.93,-0.81,0.83,1.08,9.60
1.40,-0.59,-0.82,0.37,1.32,9.35
0.64,-0.48,-0.77,0.45,1.44,9.63
-0.36,-0.17,-0.76,0.42,1.44,9.97
-0.88,-0.41,-0.84,0.23,0.67,9.63
0.60,-0.23,-0.81,0.31,0.66,9.64
1.06,0.15,-0.88,0.56,0.89,9.77
0.70,0.68,-0.85,0.41,1.24,9.79
0.44,1.22,-0.89,0.46,1.49,9.83
-1.01,2.05,-1.06,0.61,1.22,10.06
-1.31,2.20,-1.13,0.52,0.89,10.04
-0.64,2.27,-0.95,0.56,0.67,10.38
0.16,1.68,-1.12,-0.07,1.21,10.25
-0.17,0.70,-0.95,-0.03,1.19,10.15
-0.39,0.01,-1.20,0.48,1.09,10.20
-0.36,-0.32,-1.15,0.49,0.94,9.66
0.11,-0.05,-1.35,0.23,0.77,8.93
0.67,-0.02,-1.21,0.64,0.92,9.12
1.13,0.41,-1.28,0.53,1.10,9.18
1.15,0.83,-1.21,0.30,1.33,9.10
0.64,1.23,-1.16,0.68,1.24,9.70
-0.17,2.37,-1.26,0.07,0.80,9.69
0.99,2.20,-1.26,-0.13,0.93,9.66
1.37,1.70,-1.31,0.73,1.18,10.36
-0.03,1.81,-1.29,0.43,1.26,9.66
-0.37,2.08,-1.14,0.76,0.92,9.74
-0.36,2.18,-1.35,0.39,0.89,9.64
-0.04,2.22,-1.37,0.54,1.16,10.10
-0.75,0.82,-1.24,-0.25,1.17,10.21
-0.85,-0.44,-1.16,-0.17,0.98,9.91
-1.54,-1.03,-1.08,0.37,0.77,10.32
-1.04,-0.60,-1.35,0.39,0.73,9.94
1.08,-0.74,-1.03,0.21,0.81,9.57
1.04,-0.58,-1.26,0.75,1.25,9.93
0.22,0.34,-1.16,0.83,1.36,10.19
-0.87,1.09,-1.06,0.51,1.17,10.00
-0.80,1.52,-1.18,-0.14,1.13,9.49
-0.64,1.20,-1.23,0.94,0.76,10.06
-0.06,2.00,-1.22,0.67,0.92,9.88
0.52,2.25,-1.12,0.26,0.77,9.40
0.75,1.28,-1.35,0.31,1.08,9.50
0.62,1.14,-1.23,0.31,1.27,9.85
0.01,0.55,-1.23,0.03,1.19,9.75
-0.46,-0.43,-1.32,0.11,1.09,9.69
-0.20,-0.77,-1.19,0.45,0.75,9.57
1.00,0.27,-1.28,0.44,1.00,9.51
0.87,0.72,-1.27,0.04,1.27,9.51
-0.10,0.32,-1.35,0.31,1.46,10.07
-0.85,0.42,-1.23,0.35,1.41,10.56
-1.51,-0.42,-1.13,0.08,0.84,10.55
-1.08,-0.61,-0.97,0.29,0.88,10.61
-0.98,-0.52,-0.87,0.26,0.93,9.96
-0.97,0.66,-1.01,0.97,1.05,9.77
-0.98,1.51,-0.98,0.86,1.12,9.46
-1.03,2.24,-1.04,0.62,1.25,9.38
-1.37,2.42,-0.95,0.40,1.17,9.40
-1.72,1.16,-1.01,0.27,0.79,9.62
-1.23,0.44,-0.86,0.38,0.62,9.69
-0.69,-0.24,-0.82,0.14,0.57,9.22
0.07,-0.30,-0.92,0.41,0.65,9.15
0.57,1.34,-0.88,0.82,1.10,9.49
0.03,1.95,-0.77,0.49,1.25,9.96
-0.30,2.00,-0.82,-0.27,1.31,9.88
-1.05,1.17,-0.85,-0.06,1.13,10.31
-0.58,0.21,-0.76,-0.06,0.47,9.63
0.93,0.01,-0.72,-0.51,0.70,8.98
1.39,-0.33,-0.65,-0.19,0.70,8.89
1.24,-0.30,-1.05,0.39,0.91,9.09
0.84,1.23,-0.86,0.70,1.01,9.98
0.78,1.24,-0.83,0.26,0.94,10.31
0.71,0.26,-0.64,-0.92,0.71,10.13
1.49,-1.11,-0.70,-0.41,0.71,9.95
2.53,-1.67,-0.71,0.56,0.82,10.60
2.23,-1.43,-0.80,-0.01,1.07,8.61
2.15,-0.76,-0.57,1.07,1.02,9.69
1.45,0.36,-0.64,1.19,1.08,9.58
0.22,1.78,-0.28,0.32,1.57,10.34
-1.36,1.34,-0.42,0.23,1.10,10.42
-1.23,0.66,-0.72,-0.40,0.95,9.79
-0.59,0.17,-0.35,0.28,0.73,10.24
0.41,0.47,-0.51,0.23,1.04,10.14
-0.19,0.62,-0.18,-0.11,1.47,10.09
-1.07,0.45,-0.29,0.72,1.29,10.84
-1.83,0.46,-0.33,0.44,1.19,11.22
-2.20,0.41,-0.12,-0.30,0.99,10.76
-2.01,-1.24,-0.32,-0.12,0.72,10.92
-1.79,-1.81,-0.30,-0.31,0.68,10.18
-1.10,-1.83,-0.32,0.38,0.95,9.97
-1.78,-0.81,-0.18,0.23,0.95,9.13
-1.86,-0.23,-0.24,0.27,0.96,8.92
-2.00,0.31,-0.06,0.30,0.75,8.94
-1.73,0.75,-0.28,0.23,0.64,8.60
-0.28,0.65,-0.15,0.09,0.62,8.66
0.60,0.54,-0.25,0.16,0.76,8.95
0.72,0.23,0.02,0.20,0.81,9.19
0.69,0.24,0.02,0.22,0.56,9.48
1.09,-0.04,-0.09,-0.12,0.73,9.21
2.67,-1.35,0.16,-0.21,0.84,9.27
2.52,-1.60,0.21,0.24,1.02,9.68
1.97,-1.20,0.27,0.32,1.00,9.87
2.31,-0.54,0.43,-0.04,0.76,9.76
2.53,-0.41,0.41,0.32,0.86,10.02
2.46,-0.02,0.47,0.24,1.12,10.06
2.29,0.45,0.61,0.07,1.22,10.12
1.04,0.96,0.54,0.06,0.99,10.18
0.83,1.16,0.66,0.30,0.96,10.38
1.01,1.47,0.73,0.27,1.00,10.51
0.98,1.38,0.83,0.37,1.15,10.75
0.44,1.18,0.94,-0.10,1.26,10.86
-1.21,-0.52,0.87,0.03,1.16,10.93
-1.55,-0.85,0.91,0.19,0.98,11.06
-1.67,-1.09,0.99,-0.64,0.84,10.27
-0.97,-2.37,0.97,-0.18,0.87,10.29
-1.03,-2.36,0.97,-0.50,1.15,9.81
-1.81,-1.68,1.00,0.07,1.19,10.09
-2.70,-0.86,0.85,0.33,0.89,10.12
-1.42,-0.15,0.90,-0.07,0.76,9.56
-1.16,0.61,0.85,0.63,0.72,10.19
-1.63,1.63,0.81,0.00,0.95,9.83
-1.53,1.85,0.80,-0.47,1.00,9.42
-1.58,1.22,0.63,-0.34,0.74,9.42
-0.38,0.79,0.45,0.16,0.71,9.20
-0.35,0.62,0.47,-0.17,0.92,9.11
0.11,0.30,0.51,-0.48,1.04,8.94
-1.20,-1.85,0.42,-0.55,1.15,9.53
-1.54,-2.91,0.38,-0.72,1.09,9.58
-1.64,-3.91,0.44,-0.76,0.97,9.73
-1.88,-4.63,0.41,-0.74,1.03,9.85
-2.40,-5.79,0.45,-0.25,1.18,9.72
-3.11,-5.57,0.52,0.30,1.22,9.95
-3.97,-4.50,0.65,0.14,1.22,9.73
-4.70,-3.21,0.64,0.37,0.91,9.82
-4.12,-0.77,0.67,0.40,0.63,9.64
-4.34,0.54,0.59,0.82,0.71,9.74
-3.87,2.45,0.57,1.03,0.74,9.71
-3.76,4.01,0.72,0.80,0.46,9.37
-4.16,5.03,0.71,1.33,-0.04,9.18
0.53,7.10,0.86,0.61,0.16,8.05
2.02,7.75,0.93,0.44,0.84,8.05
1.98,7.82,0.59,0.24,1.26,8.47
-0.47,5.09,0.61,-0.44,0.79,8.72
-0.60,3.07,0.73,-0.68,0.62,9.07
-0.74,0.85,1.13,-0.29,-0.01,8.93
0.86,-0.69,1.24,-0.28,-0.66,8.42
10.22,-0.96,1.20,-0.73,0.43,7.08
11.38,-1.32,0.84,-0.81,1.21,7.91
9.57,-2.27,0.41,-0.92,1.89,8.88
6.77,-3.42,0.56,-0.52,2.34,10.67
3.10,-4.83,1.07,-0.37,2.12,12.37
-0.68,-7.42,1.65,-1.57,0.92,12.30
0.33,-8.13,1.85,-1.54,0.60,11.89
0.42,-8.40,1.72,-0.53,0.63,11.91
0.49,-5.27,0.70,-0.47,0.71,12.88
-1.47,-3.39,0.27,-0.51,0.62,11.87
-1.31,-3.23,0.23,0.36,0.58,11.02
-0.29,-3.98,0.59,0.71,0.40,10.52
0.70,-3.38,0.82,0.62,0.27,9.81
1.74,1.79,1.12,1.13,1.07,11.23
0.18,4.53,0.78,0.78,1.30,12.43
-1.00,6.51,0.09,-0.46,1.58,13.51
-3.29,6.48,0.10,-0.40,1.34,12.83
-5.16,0.65,0.20,0.17,0.20,8.23
-3.18,-2.09,0.99,0.34,-0.11,5.96
0.73,-2.63,1.27,-0.99,-0.36,4.36
6.90,0.03,0.13,0.76,0.10,5.79
7.78,2.51,-0.14,0.56,0.76,7.95
5.99,4.23,-0.16,0.44,1.49,10.49
4.73,3.94,0.09,1.52,1.96,13.70
3.05,2.73,0.90,0.29,2.23,15.26
-1.40,-0.93,1.39,-0.90,1.82,12.80
-3.45,-2.38,1.22,-0.56,1.19,10.62
-3.61,-2.45,0.99,0.39,0.65,9.03
-2.16,1.74,1.51,1.95,0.35,9.38
-1.30,4.58,1.35,1.34,0.61,9.67
-0.80,6.58,1.72,0.66,0.80,10.14
-1.44,6.59,1.87,0.58,0.64,11.06
-1.48,4.46,2.01,-1.00,0.70,11.05
-1.61,2.63,2.12,-0.57,0.48,9.97
-0.26,1.34,1.88,-0.52,0.61,8.77
0.28,0.71,2.11,-0.57,0.66,7.53
-0.34,1.82,2.07,0.79,0.73,8.15
-0.71,3.10,2.20,0.68,0.75,8.56
-0.74,4.13,2.22,-0.02,0.65,9.22
-1.00,4.19,2.35,-0.45,0.37,9.74
0.06,3.56,2.24,-1.33,0.03,10.50
1.98,0.73,2.05,-1.32,0.63,10.91
2.38,-0.44,2.03,-1.24,0.98,10.38
1.68,-1.39,2.04,-0.54,0.98,9.64
0.98,-0.13,2.20,-0.06,1.19,9.09
0.05,0.86,2.30,-0.42,1.24,9.16
-0.70,0.88,2.18,-0.96,0.89,9.17
-0.40,0.26,1.94,-1.32,0.72,9.46
-1.01,-0.21,2.11,-0.64,0.49,10.88
-1.15,-0.37,2.01,-1.27,0.42,10.25
-0.32,-1.00,2.27,-1.06,0.40,9.61
0.07,-1.42,2.31,-0.41,0.43,9.81
0.03,-0.75,2.29,-0.22,0.73,9.56
-1.06,1.40,2.41,-0.08,0.70,9.67
-0.77,1.89,2.38,-0.52,0.84,9.54
-1.02,2.01,2.54,-0.53,0.97,10.13
-1.93,0.76,2.49,-1.00,0.45,10.05
-1.51,-0.36,2.70,-0.95,0.19,9.86
-1.05,-1.20,2.71,-0.70,0.01,9.74
-0.50,-1.36,2.62,-0.74,-0.07,9.53
0.18,-1.22,2.84,-0.87,0.65,9.43
-0.84,-1.10,2.57,-0.96,0.93,9.58
-1.76,-1.49,2.62,-0.73,0.81,9.88
-2.18,-1.91,2.84,-0.59,0.17,10.22
-1.07,-2.10,2.76,-0.97,-0.03,9.50
1.23,-2.07,3.03,-0.72,0.65,9.22
0.24,-1.56,2.65,-0.63,0.97,9.10
-0.62,-0.91,2.77,-0.37,1.09,9.32
-1.64,-0.03,2.60,-0.66,0.51,9.73
-1.35,-0.60,2.97,-0.98,0.21,9.71
-0.74,-1.05,3.04,-0.91,-0.04,9.99
-0.56,-1.20,2.90,-0.52,0.09,10.32
-0.24,-1.32,2.71,-1.19,0.15,9.42
0.02,-1.73,2.61,-0.74,0.25,9.22
0.57,-1.46,2.66,-0.18,0.51,9.47
0.10,-0.76,2.61,-0.07,0.72,9.59
-0.33,-0.30,2.54,-0.54,0.71,9.20
-0.29,-0.21,2.54,-0.30,0.52,9.54
-0.30,0.43,2.43,-0.27,0.68,10.22
-0.71,0.83,2.37,-0.59,0.62,10.13
0.08,0.14,2.17,-0.81,0.31,9.64
-0.38,-0.21,2.07,-0.37,0.29,9.72
-0.47,0.04,1.99,-0.27,0.16,9.73
-0.07,-0.27,1.99,-0.70,-0.01,9.44
1.65,-0.86,1.70,-0.81,0.32,9.74
1.41,-0.90,1.57,-0.70,0.62,10.09
1.03,-1.03,1.41,-0.88,0.68,9.97
0.78,-1.57,1.36,-0.68,0.59,10.00
1.36,-1.72,1.36,-0.46,0.30,9.44
1.80,-1.61,1.51,-0.43,0.41,9.30
1.64,-1.17,1.41,-0.05,0.63,9.70
1.13,-0.25,1.16,-0.24,0.80,9.87
0.44,0.42,1.10,-0.47,0.38,10.39
0.77,-0.38,1.02,-0.71,0.38,10.26
0.52,-1.29,1.14,-0.31,0.28,10.48
0.60,-1.20,1.06,-0.15,0.20,10.24
1.26,-0.44,0.95,-0.02,0.17,9.38
1.84,0.37,0.81,0.03,0.58,9.43
1.99,1.05,0.81,0.16,0.91,9.95
0.97,1.30,0.77,0.00,1.02,10.46
-0.39,1.07,0.64,-0.26,0.92,10.49
-0.65,-0.02,0.75,-0.21,0.06,10.27
0.37,-0.16,0.74,-0.01,0.15,10.29
0.73,-0.37,0.72,-0.36,0.53,9.94
-0.48,-0.84,0.57,0.29,0.75,10.50
-1.14,-0.51,0.57,0.12,0.60,10.71
-1.46,-0.54,0.52,-0.69,0.40,10.33
-1.12,-1.52,0.51,-0.88,0.26,9.94
-0.20,-3.85,0.51,-0.11,0.45,9.77
-0.70,-3.37,0.48,0.10,0.44,9.88
-0.72,-2.53,0.45,-0.13,0.35,9.35
-0.19,-1.62,0.45,0.17,0.39,9.41
0.36,-0.56,0.27,0.44,0.58,9.83
-0.90,0.36,0.32,-0.33,0.49,9.43
-1.14,0.24,0.20,0.30,0.07,9.73
-0.99,0.55,0.28,0.54,0.06,10.10
-0.55,1.49,0.25,0.30,0.29,10.25
0.05,1.44,0.11,-0.22,0.28,9.56
0.02,1.01,0.04,-0.22,0.33,9.56
-0.72,0.66,-0.15,0.17,0.59,9.88
-0.91,-0.72,-0.08,-0.31,0.31,9.35
-0.41,-1.27,-0.09,-0.16,0.42,9.40
-0.66,-1.48,-0.14,-0.04,0.41,9.30
-1.39,-1.41,-0.19,0.17,0.34,9.59
-1.73,-0.82,-0.22,0.28,0.31,9.89
-2.05,-0.96,-0.24,-0.23,0.33,10.10
-2.37,-1.38,-0.29,-0.20,0.24,10.10
-2.61,-1.69,-0.17,0.14,0.20,10.02
-3.03,-1.43,-0.08,0.40,0.16,10.27
-3.49,-0.20,-0.19,0.31,0.11,9.76
-2.99,0.00,-0.14,0.28,0.14,9.68
-3.20,0.15,-0.19,0.14,0.34,9.58
-3.80,-0.10,-0.19,0.40,-0.01,9.07
-3.48,0.05,-0.16,0.40,-0.18,8.87
-2.74,0.22,-0.12,0.16,-0.19,8.45
-2.03,0.13,-0.12,0.09,-0.12,8.50
-1.52,0.09,-0.23,0.22,-0.03,8.85
-1.39,0.46,-0.21,0.15,-0.08,8.92
-1.00,0.41,-0.20,-0.01,-0.22,8.93
-0.34,-0.23,-0.19,-0.07,-0.17,8.99
0.40,-0.92,-0.10,-0.03,-0.04,9.15
0.25,-1.86,-0.13,-0.02,0.10,9.09
0.76,-2.03,-0.15,-0.08,-0.11,8.81
1.55,-1.78,-0.23,0.28,-0.02,9.07
2.00,-1.16,-0.10,0.06,0.46,9.21
1.56,-1.21,-0.19,0.15,0.22,9.38
1.77,-0.97,-0.20,0.29,0.01,9.50
2.35,-0.48,-0.17,0.12,-0.05,9.48
2.92,-0.20,-0.24,0.11,0.21,9.97
2.98,-0.18,-0.30,0.44,0.27,10.39
2.54,0.16,-0.28,0.46,0.36,10.56
2.01,0.61,-0.22,0.35,0.54,10.57
1.54,0.84,-0.28,0.19,0.59,10.64
0.44,0.35,-0.35,-0.09,0.38,10.58
0.71,-0.41,-0.40,-0.18,0.29,10.07
1.20,-1.09,-0.35,0.42,0.31,10.36
0.37,-0.76,-0.26,0.26,0.72,10.34
-0.40,-0.68,-0.21,0.09,0.58,10.50
-0.90,-1.02,-0.28,0.10,0.22,10.71
-0.83,-1.19,-0.37,-0.12,0.04,10.69
-0.16,-1.39,-0.34,0.09,-0.03,10.50
0.15,-1.59,-0.33,0.40,0.27,10.35
-0.19,-1.31,-0.31,0.55,0.38,10.24
-0.53,-0.71,-0.28,0.52,0.47,9.74
-0.38,-0.08,-0.12,0.48,0.36,9.55
-0.10,1.06,-0.25,0.46,0.47,9.52
-0.04,1.20,-0.13,0.40,0.55,9.73
-0.41,0.79,-0.28,0.18,0.43,9.57
0.07,-0.02,-0.09,0.50,0.10,9.58
0.73,-0.19,-0.14,0.29,0.18,9.24
0.73,-0.70,-0.02,-0.12,0.36,8.96
0.54,-0.96,-0.11,0.17,0.49,9.27
-0.45,-0.13,-0.24,0.12,0.47,9.66
-0.53,-0.32,-0.33,-0.14,0.30,9.50
-0.20,-0.88,-0.34,0.05,0.20,9.73
0.17,-1.19,-0.43,0.16,0.29,9.72
0.49,-0.90,-0.37,0.49,0.61,10.01
-0.67,-0.41,-0.64,-0.12,0.60,9.68
-0.72,-0.62,-0.56,0.03,0.50,10.01
-0.94,-0.35,-0.63,0.51,0.29,10.68
-0.47,-1.08,-0.87,-0.38,0.18,9.86
-0.14,-1.83,-0.97,0.16,-0.08,10.12
0.44,-2.07,-1.30,0.34,0.03,9.72
0.94,-2.04,-1.06,0.09,0.10,9.37
1.21,-1.44,-1.65,0.27,0.63,9.10
0.83,-1.19,-1.63,0.61,0.75,9.34
0.09,-0.41,-1.82,0.70,0.74,9.44
-0.39,0.10,-1.71,0.50,0.81,9.27
-0.59,0.15,-1.65,0.40,0.66,9.35
-1.52,1.10,-1.71,0.86,0.83,10.40
-2.30,1.48,-1.81,0.42,1.01,10.35
-3.89,1.42,-1.86,0.57,1.12,10.76
-5.98,1.80,-1.96,0.85,0.86,10.72
-6.45,1.84,-1.71,0.79,0.75,10.70
-7.00,1.78,-1.73,0.62,0.85,10.41
-8.38,1.79,-1.65,0.93,1.01,10.50
-11.17,2.56,-1.75,0.42,0.71,9.80
-11.82,1.88,-1.68,0.15,0.53,9.31
-12.27,1.10,-1.67,0.31,0.19,9.09
-12.02,0.84,-1.70,0.68,-0.09,8.77
-11.30,0.64,-1.54,0.85,-0.13,8.29
-11.35,0.01,-0.92,-0.23,-0.71,7.71
-13.80,-0.36,-1.17,-1.61,-1.81,7.11
-12.62,-1.64,-2.95,-1.38,-2.56,6.19
4.64,-11.84,-2.76,-0.63,-0.44,4.58
7.76,-14.97,0.03,-1.00,-0.47,6.35
10.50,-14.09,0.64,0.13,-0.84,6.04
12.07,-12.24,-0.30,0.76,-0.46,7.18
6.91,-6.36,-2.00,1.08,-0.91,6.96
8.91,-4.35,-2.99,-0.10,-0.58,5.91
11.86,-3.60,-3.37,0.16,-0.50,5.50
17.54,-4.38,-3.70,1.81,0.11,5.49
20.27,-6.01,-1.94,1.65,1.29,6.49
16.72,-1.94,0.54,0.76,0.47,9.27
13.15,1.86,-1.39,1.75,0.03,11.93
13.67,5.94,-2.78,2.70,0.92,13.83
6.23,9.24,-2.90,-0.49,1.10,19.65
4.19,6.94,-3.97,0.36,1.03,20.67
6.15,1.67,-2.57,0.75,1.36,20.03
4.37,-3.15,-1.45,-0.34,0.99,16.95
-3.30,-1.23,-2.61,0.63,-0.25,10.20
-3.04,1.46,-2.51,2.72,-0.75,8.24
0.37,4.45,-2.63,3.10,-0.59,8.33
4.58,7.67,-2.98,3.98,0.31,10.10
5.80,11.18,-2.60,4.80,1.17,14.08
-2.87,13.32,-2.06,0.92,2.74,19.89
-8.24,11.39,-2.32,-2.67,2.36,17.99
-13.44,8.22,-3.10,-2.61,1.38,12.89
-16.09,-1.78,-3.34,-1.90,0.19,2.84
-14.85,-6.67,-2.78,0.50,-0.13,3.25
-8.72,-3.50,-1.22,5.36,-1.84,6.47
-0.74,3.98,-0.24,7.88,-2.30,6.41
4.22,15.04,-0.43,0.29,-0.84,10.23
3.62,13.42,-3.21,-2.59,-0.55,12.92
2.18,4.39,-4.60,-4.57,1.74,14.13
0.40,-4.96,-3.55,-4.59,3.29,15.76
-3.47,-12.54,-1.60,-1.49,2.20,14.31
-7.50,-16.61,-1.74,0.31,0.12,6.88
-7.40,-15.52,-2.64,1.18,-0.45,4.49
-3.90,-12.15,-2.83,2.09,-0.33,4.57
-2.98,-5.87,-1.28,2.70,-0.06,6.44
-1.20,-1.55,-1.33,2.24,-0.44,7.78
-1.85,0.92,-1.44,0.98,-1.00,8.21
0.58,2.33,-2.01,-0.26,-1.25,9.02
7.60,0.20,-2.27,-1.24,-0.35,9.05
9.22,-2.60,-2.08,-0.67,0.72,9.42
8.35,-5.07,-1.56,0.78,1.09,9.17
6.94,-5.67,-1.44,1.48,1.01,8.65
5.19,-3.64,-1.50,1.77,0.90,8.66
1.76,0.96,-1.69,0.82,0.82,8.48
0.96,1.60,-1.84,0.71,0.61,9.23
0.83,1.16,-1.70,0.83,0.36,10.37
1.19,0.01,-1.38,0.44,0.04,11.11
2.27,-2.54,-1.24,0.45,0.11,10.87
2.97,-2.62,-1.25,0.55,0.19,10.17
3.13,-2.29,-1.29,0.59,0.63,9.55
1.78,0.11,-1.32,1.83,1.04,10.61
-0.24,1.38,-1.13,1.34,1.02,10.78
-1.84,1.87,-1.01,0.81,0.66,10.95
-2.37,1.56,-1.03,0.41,0.29,11.24
-1.14,-0.18,-0.92,0.20,0.13,10.81
-1.15,-1.26,-0.81,0.65,0.33,10.39
-1.32,-1.65,-0.86,0.95,0.46,9.70
-1.73,-1.52,-0.73,1.22,0.30,9.05
-1.90,-0.50,-0.59,1.53,0.08,8.99
-1.20,1.53,-0.52,0.43,0.62,8.94
-1.84,1.49,-0.63,0.25,0.57,9.34
-1.97,1.46,-0.72,0.98,0.32,10.38
-1.44,1.24,-0.73,-0.05,0.11,9.66
-0.65,0.57,-0.65,0.43,0.02,9.78
0.42,0.75,-0.70,0.97,-0.28,9.58
0.88,1.46,-0.78,1.02,-0.09,9.09
0.24,2.24,-0.70,0.40,0.83,9.37
-0.93,1.38,-0.89,0.34,0.93,9.72
-1.30,0.54,-0.83,0.20,0.72,9.80
-1.24,-0.15,-0.64,0.06,0.37,9.80
-1.04,-0.84,-0.74,0.05,0.13,9.65
0.06,-1.28,-0.70,0.58,0.06,9.54
0.62,-0.77,-0.89,0.63,0.18,9.04
0.63,-0.12,-0.76,0.83,0.40,9.40
-0.76,2.46,-1.12,0.73,0.55,10.27
-0.96,2.91,-0.90,0.59,0.38,10.78
-0.75,2.80,-0.97,0.11,0.02,10.73
-0.46,2.68,-1.08,0.32,0.15,10.66
-0.48,3.11,-1.03,0.68,0.48,9.61
-0.87,2.81,-1.02,0.34,0.61,8.93
-1.03,2.89,-0.96,0.94,0.51,8.90
-1.30,3.28,-1.09,0.92,0.65,8.74
-2.62,3.01,-0.99,0.42,0.70,8.93
-3.00,2.35,-1.12,0.23,0.23,9.38
-2.47,1.95,-1.13,0.34,-0.06,9.68
-1.70,1.91,-0.98,0.30,-0.11,10.09
-1.33,0.87,-1.13,-0.06,-0.02,9.75
-1.09,0.69,-1.06,0.65,-0.30,9.82
-0.22,1.34,-1.11,1.08,-0.34,9.52
1.18,2.42,-1.00,0.79,0.04,9.09
1.48,3.46,-0.92,0.77,0.89,9.15
0.66,3.99,-0.91,0.76,0.81,9.37
-0.34,4.17,-0.87,0.65,0.49,9.42
-0.12,4.00,-0.80,0.29,0.14,9.19
0.69,3.25,-0.76,0.32,-0.21,8.89
3.56,2.42,-0.69,0.31,-0.29,8.45
4.38,1.95,-0.74,0.30,0.08,8.53
4.71,1.78,-0.80,0.59,0.52,9.32
2.99,1.27,-0.76,-0.34,0.61,9.93
2.60,0.37,-0.78,-0.05,0.16,10.70
3.12,-0.54,-0.84,0.02,-0.16,10.89
4.29,-0.99,-0.75,-0.07,0.12,11.00
4.22,-2.01,-0.69,-0.18,1.07,10.99
2.82,-2.45,-0.78,-0.08,1.16,11.09
1.26,-2.59,-0.75,0.39,1.04,11.48
0.12,-2.59,-0.69,-0.22,0.87,11.32
-0.64,-3.49,-0.72,-0.42,0.53,10.72
0.20,-3.58,-0.58,0.39,-0.02,10.72
0.27,-2.71,-0.56,0.07,0.15,10.32
-0.01,-2.19,-0.66,0.19,0.49,10.57
-0.87,-1.92,-0.87,0.14,0.12,10.53
-0.14,-1.61,-0.74,0.22,-0.05,10.40
0.65,-1.34,-0.80,0.40,0.08,10.62
0.88,-1.12,-0.88,0.61,0.52,10.61
-0.06,-0.98,-0.67,0.03,0.78,10.17
-0.74,-1.45,-0.64,-0.05,0.54,9.86
-0.44,-1.56,-0.68,0.64,0.06,10.02
0.37,-1.24,-0.66,0.71,-0.05,9.66
0.95,-1.29,-0.52,0.13,0.22,8.75
1.39,-1.60,-0.54,0.90,0.27,8.96
1.74,-0.45,-0.59,0.90,0.27,8.93
1.90,0.78,-0.50,0.65,0.43,9.11
1.00,1.79,-0.53,0.34,0.72,10.55
0.51,1.79,-0.41,0.31,0.63,11.21
0.23,1.90,-0.32,0.56,0.61,11.94
-0.69,1.41,-0.32,0.37,0.80,11.52
-2.00,-0.23,-0.27,0.30,0.71,10.45
-2.33,-0.66,-0.22,0.36,0.76,10.16
-2.71,-1.21,-0.16,0.33,0.83,10.03
-3.45,-2.07,-0.04,0.29,0.65,9.97
-3.96,-3.01,0.13,0.03,-0.05,9.53
-3.49,-3.15,-0.01,0.14,-0.23,9.39
-2.31,-2.97,-0.05,0.24,-0.04,9.56
-1.93,-2.91,0.05,0.14,0.15,9.77
-1.59,-3.67,0.11,-0.08,0.30,9.05
-1.20,-3.64,0.11,0.59,0.10,8.94
-0.70,-2.73,0.06,0.63,0.02,8.24
-0.15,-1.82,0.11,0.37,0.10,7.61
0.50,-0.43,0.01,0.87,0.52,7.94
0.42,0.81,0.04,0.94,0.69,8.54
0.06,1.66,0.13,0.40,0.65,8.86
-0.33,1.17,0.00,-0.21,0.44,9.13
0.02,-1.46,-0.17,-0.39,-0.13,9.78
0.94,-1.95,-0.23,-0.13,-0.19,9.95
1.56,-2.19,-0.26,0.00,0.15,9.91
1.39,-2.41,-0.24,-0.05,0.69,9.87
-0.59,-1.90,-0.27,0.64,0.75,10.36
-1.15,-1.02,-0.25,0.58,0.59,10.38
-1.43,-0.50,-0.23,0.20,0.47,10.18
-1.51,-0.50,-0.25,0.10,0.48,10.32
-2.08,-0.50,-0.16,0.60,0.37,10.56
-2.25,0.17,-0.11,0.83,0.28,10.51
-2.23,0.73,-0.01,0.50,0.19,10.10
-2.14,0.93,-0.03,0.34,0.16,9.88
-1.35,0.70,-0.14,0.10,0.22,9.22
-1.30,0.58,-0.26,0.47,0.30,9.32
-1.50,0.25,-0.24,0.25,0.39,8.88
-1.67,-0.46,-0.13,-0.02,0.32,8.60
-1.08,-1.47,-0.04,0.17,0.12,8.75
-0.85,-1.41,-0.00,0.19,0.26,8.98
-0.70,-0.96,-0.05,0.46,0.46,9.34
-0.96,-0.87,-0.00,0.21,0.49,9.31
-0.42,-1.00,0.02,0.65,0.11,9.36
0.03,-0.19,-0.01,1.11,0.00,9.56
0.21,0.97,0.05,0.57,0.16,9.36
0.25,1.75,0.08,0.37,0.23,9.77
0.64,2.17,-0.14,0.33,0.18,10.31
0.96,2.48,-0.13,0.45,0.07,10.55
1.09,2.47,-0.13,0.09,0.00,10.24
1.31,1.52,-0.13,-0.28,-0.01,9.53
2.08,0.34,-0.19,0.20,-0.10,9.19
3.96,0.45,-0.11,0.64,0.23,8.71
3.60,0.84,-0.21,0.53,0.75,8.86
2.70,0.93,-0.30,0.24,0.85,9.04
1.91,1.76,-0.28,0.72,0.29,10.54
2.25,2.55,-0.18,0.43,0.27,10.90
1.26,2.36,-0.15,0.41,-0.17,11.14
1.79,2.13,-0.30,-0.14,-0.49,10.47
5.20,1.33,-0.43,0.14,0.70,10.61
3.84,0.52,-0.70,0.05,1.00,11.18
1.99,0.01,-0.84,0.24,1.28,11.90
-0.09,-0.27,-0.40,0.49,0.95,12.55
-1.69,-0.67,-0.32,-0.23,0.38,12.09
-1.05,-2.27,-0.44,-0.24,0.41,11.15
0.16,-3.08,-0.65,-0.53,1.13,10.21
-1.01,-3.84,-0.83,0.24,1.53,10.23
-6.40,-2.61,-0.72,0.67,1.74,9.99
-9.53,-2.68,-0.58,0.02,1.70,9.93
-11.77,-3.69,-0.46,-0.24,1.45,10.37
-13.90,-5.32,-0.32,-0.57,1.22,11.24
-17.79,-9.53,-0.46,-2.10,0.34,11.94
-17.58,-12.29,-0.86,-2.42,0.51,11.19
-18.05,-16.61,-0.67,-1.77,0.25,9.82
-19.18,-20.69,-0.75,-1.46,-0.46,8.72
-18.28,-23.12,-0.72,-0.44,-1.51,6.21
-12.88,-20.11,-1.49,0.54,-1.88,6.82
-7.87,-16.73,-1.97,1.15,-1.23,6.29
-4.79,-13.59,-1.82,0.89,-0.29,5.86
-3.22,-8.30,-2.30,1.75,-0.60,5.44
-3.82,-6.57,-2.23,1.21,-1.03,4.41
-2.35,-5.07,-2.15,1.25,-1.28,3.03
0.76,-4.11,-2.25,1.31,-1.25,1.37
1.94,1.04,-3.11,0.91,0.65,-4.37
4.58,3.76,-5.48,1.63,-0.10,-3.68
11.12,6.63,-5.22,3.35,-1.81,0.60
16.91,9.27,-1.99,4.04,-3.05,3.82
25.70,12.75,-0.84,3.48,-4.40,6.00
42.11,16.21,-4.82,0.28,-4.16,11.98
52.51,11.78,-4.37,-1.81,-2.08,16.41
55.62,4.76,-2.37,-3.24,0.96,20.15
37.26,-6.17,-2.97,2.31,7.27,22.24
23.17,-6.00,-2.87,3.34,7.31,18.41
11.00,-2.43,-2.31,4.80,5.54,14.92
3.08,4.86,-1.36,6.72,3.27,13.29
-7.33,18.69,-0.98,2.78,2.73,15.11
-12.37,18.92,-1.42,1.08,2.21,19.73
-12.67,15.37,-1.39,-0.87,0.60,22.81
-13.59,7.83,-1.07,-2.12,-1.43,23.17
-11.22,-0.38,-0.63,-0.93,-2.03,20.39
-1.17,-5.19,0.48,1.10,-0.85,12.00
0.35,-2.47,-0.12,2.69,0.18,10.45
-0.64,1.19,-1.03,3.15,1.29,10.52
-10.60,5.09,-1.29,1.48,3.33,11.57
-16.34,4.44,-1.16,0.30,2.92,11.90
-20.40,3.02,-1.22,-0.46,1.59,11.00
-20.85,1.76,-1.12,-0.67,0.13,9.29
-15.62,1.21,-0.84,0.02,-1.82,6.58
-11.41,1.29,-1.54,0.31,-2.09,5.71
-7.21,1.48,-2.03,1.16,-1.70,6.11
-2.95,1.78,-2.04,1.68,-0.97,7.06
0.10,2.70,-1.72,1.37,-0.36,8.41
0.20,4.23,-1.98,-0.37,1.64,9.89
-2.60,3.52,-2.18,-0.81,2.15,10.07
-6.55,0.94,-2.32,-1.06,2.14,8.96
-10.73,-2.38,-2.21,0.99,0.42,7.41
-10.23,-2.23,-1.94,0.98,-0.36,5.99
-8.65,-1.36,-1.96,0.90,-0.96,5.70
-6.10,0.09,-2.09,1.17,-1.36,5.63
-0.31,2.54,-2.10,1.08,-0.94,7.01
1.83,3.26,-2.14,0.93,-0.59,7.66
3.20,3.22,-2.24,0.38,-0.16,7.89
3.62,1.89,-2.35,-0.23,0.44,7.52
3.10,-0.14,-2.38,-0.40,0.96,7.64
1.37,-2.18,-2.24,0.59,0.77,7.76
0.73,-2.01,-2.21,0.93,0.43,7.67
0.47,-1.41,-2.13,1.27,0.09,7.95
1.08,-0.52,-2.34,0.46,0.01,8.51
1.54,-0.56,-2.35,0.14,0.09,9.25
1.64,-1.29,-2.59,-0.25,0.27,9.60
1.50,-2.54,-2.76,-0.18,0.42,10.10
1.67,-4.77,-2.69,0.70,-0.21,9.86
2.73,-4.75,-2.67,0.81,-0.18,9.25
3.70,-4.15,-2.67,0.87,0.13,8.76
4.18,-3.31,-2.88,1.13,0.54,8.78
3.91,-2.37,-2.87,1.33,0.84,9.22
1.14,-1.54,-2.98,0.72,0.98,9.90
0.10,-2.12,-2.97,0.70,0.50,10.00
-0.26,-3.15,-2.94,0.77,0.10,10.19
0.61,-3.58,-3.18,0.62,-0.03,10.07
1.38,-3.32,-3.35,1.10,-0.13,9.95
2.09,-2.81,-3.36,1.48,-0.02,10.08
2.22,-2.33,-3.38,1.64,0.19,10.23
1.50,-1.00,-3.31,1.29,0.58,10.62
0.55,-1.00,-3.42,1.38,0.71,10.60
0.19,-0.86,-3.44,1.42,0.64,10.84
-0.02,-0.58,-3.46,1.40,0.42,10.68
-0.44,-0.33,-3.37,1.37,0.29,10.77
-0.45,-0.52,-3.40,1.31,0.22,10.52
-0.37,-0.80,-3.32,1.51,0.10,10.44
0.14,-0.59,-3.35,1.63,0.09,10.16
0.26,-0.06,-3.44,1.57,0.31,10.00
-0.52,0.79,-3.48,1.64,0.26,9.71
-0.50,1.19,-3.43,1.93,0.05,9.90
0.15,1.85,-3.36,1.81,-0.02,9.89
1.23,2.63,-3.26,1.56,0.24,9.75
1.23,2.60,-3.29,1.60,0.48,9.86
0.88,2.74,-3.24,2.02,0.45,10.06
0.61,3.16,-3.14,1.92,0.14,10.01
1.77,3.23,-2.87,1.56,0.10,9.98
2.02,2.91,-2.80,1.59,0.18,10.28
2.07,2.86,-2.73,1.46,0.26,10.19
1.98,2.97,-2.73,1.40,0.21,10.19
2.66,2.38,-2.90,1.14,0.19,9.43
2.70,2.33,-2.71,1.77,0.37,10.12
2.53,2.90,-2.59,1.83,0.54,10.47
1.63,3.02,-2.52,1.41,0.66,10.59
0.56,2.11,-2.29,0.74,0.58,10.88
-0.07,1.30,-2.25,1.01,0.52,10.94
-0.00,0.71,-2.13,1.18,0.39,11.01
-0.23,0.35,-1.95,1.03,0.35,10.82
-0.63,-0.08,-1.93,0.90,0.46,10.53
-0.95,-0.27,-1.92,0.97,0.27,10.49
-1.08,-0.13,-2.00,1.02,0.11,10.50
-0.98,-0.02,-1.81,0.65,0.02,10.27
-0.61,-0.20,-1.81,0.62,0.06,10.23
0.08,-0.85,-1.60,0.67,0.32,9.93
-0.07,-0.89,-1.64,0.70,0.29,9.47
-0.12,-0.66,-1.60,1.14,0.25,9.18
0.14,0.14,-1.59,1.01,0.19,8.11
0.78,0.76,-1.44,1.07,0.34,8.31
0.98,1.48,-1.41,1.02,0.59,8.92
0.34,1.79,-1.43,0.80,0.78,9.51
-0.92,0.85,-1.30,0.15,0.15,10.35
-0.52,0.03,-1.40,0.20,-0.09,10.49
0.39,-0.22,-1.30,0.49,-0.05,10.87
0.65,-0.34,-1.20,0.57,0.14,10.82
-0.23,-0.77,-1.06,0.39,0.63,10.49
-0.89,-0.70,-1.13,0.81,0.42,10.25
-0.80,-0.17,-1.10,1.17,0.14,10.13
-0.48,0.40,-0.89,0.80,0.01,9.47
0.74,0.80,-0.72,0.83,0.29,9.25
0.85,1.17,-0.59,1.04,0.42,9.36
0.61,1.46,-0.50,0.85,0.49,9.17
0.47,1.58,-0.39,0.67,0.33,9.11
0.85,1.39,-0.48,0.52,-0.22,9.07
1.59,1.49,-0.36,0.63,-0.31,9.24
2.38,1.47,-0.37,0.55,-0.20,9.41
2.40,1.27,-0.36,0.31,0.07,9.78
1.63,0.90,-0.36,0.23,0.17,10.03
0.75,-0.10,-0.39,0.45,-0.28,10.63
1.03,-0.26,-0.36,0.38,-0.61,10.60
1.80,-0.41,-0.37,0.22,-0.44,10.53
1.70,-0.82,-0.25,0.33,0.38,11.10
0.58,-0.86,-0.31,0.24,0.49,11.26
-0.76,-0.91,-0.34,0.15,0.33,11.17
-1.46,-1.37,-0.45,-0.08,-0.02,10.74
-0.76,-2.31,-0.58,0.21,-0.45,9.96
-0.39,-2.07,-0.56,0.55,-0.46,9.96
0.03,-1.53,-0.54,0.40,-0.23,9.76
0.03,-1.45,-0.55,0.21,0.02,9.86
-0.76,-1.79,-0.59,0.08,0.12,9.96
-1.18,-1.96,-0.69,0.56,-0.34,9.86
-0.94,-1.57,-0.66,0.68,-0.33,9.83
-0.98,-1.05,-0.63,0.63,-0.10,10.05
-1.62,-0.96,-0.62,0.04,0.21,9.85
-1.82,-1.08,-0.68,0.48,0.03,10.05
-2.11,-0.58,-0.72,0.80,-0.11,9.92
-2.49,0.24,-0.77,0.68,-0.32,9.43
-2.04,1.43,-0.94,0.62,-0.37,9.21
-1.85,1.74,-0.90,0.59,-0.08,9.51
-2.44,1.93,-0.88,0.76,0.10,10.25
-3.54,1.68,-0.94,0.34,0.07,10.37
-4.44,0.91,-0.92,-0.02,-0.21,10.17
-4.00,-0.40,-0.90,0.48,-0.75,9.51
-3.14,-0.36,-0.82,0.58,-0.52,9.04
-2.64,0.02,-0.78,0.82,-0.24,8.90
-3.44,0.94,-0.74,0.98,-0.04,8.59
-3.49,1.67,-0.70,1.04,-0.35,8.57
-2.96,2.38,-0.72,0.84,-0.56,8.45
-2.22,3.03,-0.79,0.70,-0.59,8.67
-1.54,3.28,-0.68,0.56,-0.58,9.11
-0.94,2.99,-0.61,0.60,-0.63,9.15
-0.32,2.51,-0.57,0.69,-0.64,9.02
0.24,2.34,-0.53,0.81,-0.63,8.80
0.93,2.39,-0.45,0.75,-0.44,8.12
1.09,2.61,-0.53,0.94,-0.43,8.38
1.42,2.97,-0.55,0.70,-0.38,8.59
1.71,2.97,-0.46,0.58,-0.31,9.02
1.95,2.36,-0.34,0.20,-0.24,10.12
2.06,1.83,-0.33,-0.04,-0.40,10.22
2.63,1.35,-0.38,0.10,-0.51,10.53
3.19,0.78,-0.45,0.13,-0.50,10.27
3.69,0.25,-0.36,0.57,-0.15,10.17
3.60,0.62,-0.29,0.85,-0.03,10.38
2.93,1.23,-0.24,0.79,0.04,10.67
1.99,1.82,-0.21,0.48,0.15,10.69
1.28,1.96,-0.19,0.24,0.27,10.85
-0.29,1.62,-0.21,0.28,0.06,10.84
-0.71,1.51,-0.18,0.51,-0.05,10.61
-0.68,1.70,-0.10,0.68,-0.07,10.33
-1.53,2.54,-0.03,0.70,0.27,10.16
-2.28,3.51,-0.02,0.70,0.30,10.70
-3.57,4.09,-0.00,0.34,0.30,11.04
-4.63,4.02,0.02,0.01,0.19,11.28
-5.33,2.57,0.16,0.05,-0.40,11.00
-4.92,2.10,0.19,0.28,-0.39,10.47
-4.66,1.95,0.23,0.51,-0.18,9.77
-4.64,2.05,0.30,0.41,0.13,8.95
-5.27,2.35,0.48,0.55,0.30,8.52
-6.10,3.35,0.64,0.59,0.25,7.83
-6.25,3.80,0.80,0.52,0.18,7.91
-6.50,4.11,0.89,0.35,0.04,7.99
-6.82,4.17,0.96,0.28,-0.19,8.22
-5.58,4.09,1.14,-0.04,-0.45,8.27
-4.41,3.74,1.28,0.02,-0.51,8.32
-4.11,3.23,1.42,-0.20,-0.56,8.22
-3.00,2.12,1.48,-0.20,-0.45,7.82
-2.23,1.63,1.65,-0.11,-0.50,7.80
-1.40,1.37,1.78,0.15,-0.47,7.84
-0.57,1.58,2.04,0.21,-0.41,8.06
0.09,1.96,2.18,0.10,-0.36,8.20
1.97,2.30,2.11,-0.69,-0.46,7.75
2.81,2.18,2.00,-0.58,-0.48,7.69
