angleSpeedx_y_z;lineAccx_y_z
0.00,0.03,0.03,-0.02,-0.09,9.82
0.00,0.03,0.03,-0.01,-0.08,9.82
-0.01,-0.03,0.05,-0.02,-0.08,9.82
-0.01,-0.03,0.05,-0.02,-0.09,9.81
-0.02,-0.02,0.05,-0.02,-0.10,9.81
-0.02,-0.01,0.04,-0.01,-0.09,9.81
-0.01,-0.01,0.07,-0.01,-0.10,9.80
-0.00,-0.01,0.08,-0.03,-0.10,9.80
0.00,-0.01,0.09,-0.03,-0.10,9.80
-0.01,-0.01,0.06,-0.02,-0.10,9.79
-0.00,-0.02,0.06,-0.03,-0.09,9.79
-0.01,-0.00,0.05,-0.03,-0.09,9.79
-0.00,-0.01,0.06,-0.04,-0.10,9.79
0.01,-0.04,0.05,-0.04,-0.10,9.79
0.02,-0.01,0.05,-0.04,-0.09,9.80
-0.00,0.02,0.05,-0.04,-0.10,9.80
-0.02,0.00,0.03,-0.03,-0.10,9.81
-0.01,-0.00,0.04,-0.03,-0.11,9.81
0.00,-0.02,0.03,-0.02,-0.11,9.81
-0.01,-0.00,0.04,-0.01,-0.11,9.82
-0.02,-0.01,0.06,-0.02,-0.11,9.82
-0.01,-0.02,0.05,-0.02,-0.12,9.82
0.02,-0.01,0.03,-0.00,-0.12,9.82
0.02,0.01,0.03,-0.00,-0.11,9.82
0.03,0.01,0.05,-0.01,-0.11,9.81
0.05,0.01,0.06,-0.01,-0.10,9.80
0.05,0.00,0.07,-0.01,-0.09,9.81
0.02,-0.01,0.06,-0.02,-0.10,9.82
-0.04,0.01,0.04,-0.01,-0.13,9.83
-0.01,0.01,0.05,-0.02,-0.15,9.81
0.12,0.02,0.09,-0.02,-0.09,9.81
0.01,0.01,0.07,-0.00,-0.06,9.84
-0.10,0.03,0.06,-0.02,-0.08,9.82
-0.13,0.02,0.07,-0.04,-0.13,9.79
0.07,-0.00,0.06,-0.03,-0.12,9.78
0.08,0.02,0.07,-0.03,-0.06,9.78
0.00,0.03,0.06,-0.05,-0.02,9.79
-0.11,0.00,0.05,-0.06,-0.05,9.80
-0.02,-0.04,0.03,-0.04,-0.15,9.76
0.11,0.00,0.02,-0.03,-0.12,9.77
0.14,0.03,0.03,-0.05,-0.05,9.80
0.04,0.01,0.03,-0.07,-0.01,9.84
-0.06,-0.07,0.03,-0.06,-0.09,9.81
0.03,-0.08,0.02,-0.03,-0.13,9.78
0.10,-0.05,0.02,-0.00,-0.12,9.80
0.16,-0.02,0.03,-0.03,-0.05,9.82
-0.06,-0.01,-0.02,-0.05,-0.01,9.89
-0.14,-0.09,-0.00,-0.02,-0.05,9.87
-0.11,-0.09,0.01,0.01,-0.12,9.82
-0.03,-0.04,0.03,0.02,-0.14,9.78
0.04,0.00,0.04,0.01,-0.05,9.84
-0.06,-0.02,0.06,-0.01,-0.03,9.86
-0.15,-0.05,0.06,-0.02,-0.06,9.83
-0.14,-0.07,0.05,0.01,-0.10,9.79
-0.01,-0.02,0.05,0.04,-0.15,9.76
0.05,0.00,0.07,0.02,-0.12,9.79
0.02,0.01,0.08,-0.02,-0.10,9.80
-0.01,-0.01,0.07,-0.02,-0.09,9.82
-0.03,-0.03,0.05,0.00,-0.13,9.77
0.00,0.02,0.08,0.01,-0.15,9.78
0.04,0.04,0.08,-0.02,-0.16,9.78
0.06,0.02,0.07,-0.04,-0.14,9.80
0.03,-0.00,0.07,-0.03,-0.08,9.81
-0.03,0.01,0.07,-0.03,-0.09,9.80
-0.03,0.02,0.06,-0.04,-0.12,9.80
-0.02,0.01,0.05,-0.05,-0.14,9.80
0.05,0.01,0.05,-0.04,-0.11,9.79
0.02,0.02,0.05,-0.04,-0.08,9.80
-0.02,0.03,0.03,-0.04,-0.07,9.82
-0.05,0.02,0.03,-0.05,-0.09,9.82
-0.03,-0.02,0.03,-0.03,-0.12,9.80
0.01,0.01,0.03,-0.02,-0.12,9.79
0.05,0.03,0.03,-0.03,-0.11,9.80
0.04,0.03,0.05,-0.04,-0.08,9.82
0.00,-0.05,0.06,-0.05,-0.07,9.82
0.01,-0.03,0.05,-0.02,-0.08,9.82
0.01,-0.01,0.04,-0.02,-0.09,9.81
0.01,-0.02,0.04,-0.03,-0.10,9.81
0.06,-0.07,0.05,-0.03,-0.09,9.82
0.08,-0.05,0.05,-0.03,-0.07,9.83
0.05,-0.05,0.03,-0.04,-0.06,9.82
-0.05,-0.08,0.04,-0.04,-0.06,9.81
-0.06,-0.03,0.03,-0.03,-0.12,9.80
0.01,-0.04,0.05,-0.02,-0.12,9.81
0.06,-0.02,0.04,-0.02,-0.10,9.80
0.00,-0.01,0.04,-0.02,-0.07,9.79
-0.05,-0.02,0.03,-0.02,-0.09,9.80
-0.03,-0.02,0.01,-0.02,-0.10,9.80
0.05,-0.02,0.00,-0.03,-0.11,9.76
0.11,-0.06,0.02,-0.03,-0.08,9.74
0.22,-0.02,0.01,-0.01,0.04,9.73
0.25,-0.01,0.02,0.01,0.09,9.75
0.27,-0.02,0.04,0.00,0.11,9.74
0.29,-0.05,0.04,-0.01,0.11,9.71
0.34,0.02,0.05,0.02,0.14,9.77
0.33,0.07,0.06,0.01,0.17,9.81
0.26,0.05,0.07,-0.01,0.20,9.86
0.18,0.03,0.06,-0.03,0.19,9.88
0.09,0.05,0.06,-0.02,0.15,9.95
0.04,0.06,0.06,-0.04,0.13,9.95
0.01,0.04,0.08,-0.02,0.13,9.96
-0.01,0.01,0.10,-0.02,0.14,9.94
-0.04,-0.01,0.07,-0.03,0.20,9.88
-0.03,-0.02,0.06,-0.05,0.22,9.82
0.02,-0.06,0.07,-0.06,0.24,9.76
0.10,-0.11,0.07,-0.03,0.28,9.73
0.15,-0.09,0.10,-0.01,0.38,9.65
0.11,-0.02,0.09,0.01,0.39,9.64
0.12,0.04,0.09,-0.02,0.36,9.63
0.20,0.08,0.07,-0.03,0.35,9.67
0.37,0.05,0.06,-0.05,0.39,9.82
0.31,0.02,0.08,-0.06,0.39,9.87
0.25,-0.01,0.06,-0.06,0.37,9.87
0.32,-0.05,0.04,-0.05,0.37,9.83
0.60,-0.04,0.03,-0.01,0.54,9.83
0.50,-0.02,0.06,-0.01,0.66,9.86
0.31,-0.02,0.07,-0.02,0.71,9.86
0.18,-0.01,0.04,-0.02,0.65,9.84
0.41,0.00,0.08,-0.01,0.62,9.82
0.51,0.01,0.12,-0.01,0.73,9.86
0.35,-0.01,0.10,0.00,0.82,9.92
0.06,-0.02,0.09,-0.01,0.79,9.94
-0.09,0.00,0.08,-0.02,0.52,9.92
0.17,-0.01,0.10,-0.04,0.50,9.90
0.40,-0.06,0.11,-0.04,0.63,9.92
0.45,-0.12,0.10,-0.03,0.80,9.93
0.00,-0.20,0.08,0.00,0.85,9.80
0.02,-0.15,0.08,0.03,0.78,9.69
0.27,-0.07,0.09,0.04,0.75,9.62
0.54,0.01,0.11,0.03,0.84,9.63
0.50,0.02,0.17,-0.00,1.11,9.74
0.25,0.00,0.16,0.00,1.09,9.75
0.16,-0.01,0.15,0.01,0.95,9.72
0.33,0.04,0.16,0.03,0.84,9.70
0.75,0.16,0.18,0.01,1.00,9.86
0.58,0.18,0.17,-0.01,1.10,9.96
0.26,0.10,0.17,-0.03,1.09,9.99
0.10,0.02,0.16,-0.04,0.97,9.96
0.54,0.02,0.19,-0.01,0.93,9.88
0.76,-0.05,0.18,-0.06,1.09,9.76
0.98,-0.06,0.18,-0.04,1.15,9.81
1.06,-0.12,0.17,0.02,1.19,9.91
0.89,-0.12,0.16,-0.01,1.44,9.80
0.65,-0.04,0.15,0.01,1.50,9.82
0.28,0.04,0.14,0.01,1.44,9.84
-0.04,0.08,0.13,0.01,1.29,9.85
0.30,0.17,0.14,-0.09,1.04,9.90
0.60,0.04,0.14,-0.10,1.10,9.98
0.79,-0.10,0.12,-0.11,1.30,10.01
0.78,-0.23,0.12,-0.12,1.51,9.92
0.56,-0.32,0.10,0.05,1.53,9.73
0.63,-0.07,0.13,0.07,1.56,9.70
0.56,0.12,0.13,0.03,1.60,9.68
0.45,0.19,0.12,-0.01,1.63,9.77
0.31,0.15,0.13,-0.05,1.61,9.94
0.30,0.10,0.11,-0.06,1.54,9.98
0.28,-0.04,0.10,-0.09,1.46,9.94
0.32,-0.12,0.09,-0.04,1.41,9.92
0.71,-0.11,0.12,-0.03,1.53,9.84
0.89,-0.22,0.11,-0.09,1.65,9.73
0.93,-0.33,0.11,-0.02,1.71,9.78
1.06,-0.29,0.08,0.03,1.82,9.82
0.85,-0.28,0.12,-0.02,1.97,9.67
0.75,-0.20,0.11,0.02,2.01,9.70
0.50,-0.15,0.11,0.11,1.98,9.79
0.21,-0.03,0.15,0.10,1.91,9.80
0.23,0.09,0.10,-0.05,1.64,9.86
0.57,0.04,0.11,-0.06,1.61,9.93
0.91,-0.07,0.15,-0.07,1.76,9.95
0.98,-0.28,0.15,-0.06,1.95,9.90
0.73,-0.28,0.15,0.08,2.02,9.82
0.52,-0.15,0.15,0.08,2.06,9.73
0.33,-0.01,0.15,0.05,2.07,9.71
0.20,0.07,0.13,0.02,2.03,9.77
0.00,0.18,0.16,0.01,1.84,10.01
0.03,0.18,0.14,-0.07,1.75,10.01
0.10,0.05,0.12,-0.08,1.69,10.02
0.20,-0.07,0.10,-0.05,1.66,9.99
0.29,-0.04,0.06,0.04,1.73,9.81
0.36,0.02,0.04,0.06,1.82,9.75
0.31,0.12,0.03,0.06,1.89,9.72
0.24,0.21,0.01,0.01,1.93,9.71
0.19,0.12,0.00,0.01,1.94,9.76
0.25,0.12,0.00,0.01,1.94,9.76
0.29,0.13,0.04,0.03,1.92,9.74
0.28,0.12,0.02,0.04,1.88,9.77
0.18,0.23,0.03,0.01,1.79,9.83
0.15,0.22,0.00,0.02,1.71,9.90
0.16,0.19,0.03,-0.00,1.66,9.95
0.19,0.15,0.05,-0.01,1.65,9.97
0.29,0.12,0.08,-0.02,1.77,10.00
0.23,0.08,0.07,-0.09,1.85,9.92
0.14,0.00,0.09,0.01,1.89,9.89
0.05,0.02,0.14,0.07,1.90,9.87
-0.12,0.19,0.18,0.09,1.86,9.83
-0.24,0.28,0.19,0.01,1.82,9.86
-0.33,0.31,0.20,-0.08,1.75,9.88
-0.38,0.22,0.23,-0.05,1.64,9.98
-0.15,-0.02,0.22,-0.18,1.54,9.91
-0.04,-0.14,0.22,-0.10,1.53,9.88
0.03,-0.15,0.21,-0.04,1.56,9.86
0.06,-0.12,0.18,-0.12,1.63,9.75
0.23,-0.23,0.14,-0.08,1.77,9.65
0.26,-0.24,0.10,-0.07,1.87,9.66
0.10,-0.21,0.11,-0.05,1.90,9.66
-0.09,-0.18,0.09,-0.09,1.83,9.67
0.10,-0.20,0.08,-0.12,1.63,9.71
0.31,-0.22,0.07,-0.10,1.62,9.80
0.31,-0.29,0.05,-0.12,1.64,9.84
0.12,-0.37,0.02,-0.14,1.61,9.85
0.06,-0.30,0.01,-0.07,1.42,9.89
0.33,-0.30,-0.01,-0.17,1.47,9.84
0.51,-0.41,0.02,-0.11,1.61,9.88
0.37,-0.50,-0.02,-0.05,1.73,9.88
0.08,-0.43,-0.02,0.01,1.68,9.60
0.23,-0.30,-0.03,0.11,1.64,9.57
0.40,-0.15,0.01,0.09,1.69,9.55
0.34,-0.09,0.03,0.02,1.76,9.62
-0.04,-0.13,0.02,0.03,1.69,9.81
-0.09,-0.17,0.03,0.01,1.51,9.85
0.06,-0.20,0.06,0.03,1.40,9.89
0.28,-0.30,0.06,0.10,1.39,9.93
0.34,-0.26,0.15,0.07,1.60,9.97
0.17,-0.23,0.20,0.08,1.63,9.91
0.06,-0.21,0.20,0.16,1.61,9.96
0.02,-0.05,0.20,0.19,1.61,9.95
-0.09,0.31,0.25,0.11,1.68,10.00
-0.32,0.34,0.25,0.06,1.64,9.94
-0.37,0.40,0.25,0.13,1.53,9.95
-0.27,0.52,0.24,0.12,1.44,9.93
-0.27,0.63,0.23,0.09,1.44,9.89
-0.37,0.65,0.20,0.03,1.40,9.86
-0.35,0.61,0.19,0.01,1.34,9.79
-0.06,0.54,0.18,0.00,1.35,9.76
0.03,0.48,0.13,-0.04,1.50,9.68
0.02,0.37,0.10,-0.02,1.49,9.66
0.09,0.38,0.05,0.06,1.44,9.65
0.35,0.47,0.02,-0.02,1.43,9.57
0.41,0.34,0.01,-0.08,1.46,9.79
0.30,0.28,-0.04,-0.05,1.42,9.94
0.36,0.28,-0.05,-0.19,1.33,9.94
0.53,0.15,-0.07,-0.27,1.26,9.94
0.62,-0.23,-0.15,-0.17,1.36,10.22
0.38,-0.26,-0.12,-0.10,1.35,10.25
0.14,-0.30,-0.09,-0.20,1.28,10.19
0.14,-0.43,-0.08,-0.25,1.25,10.08
0.34,-0.45,-0.09,-0.14,1.49,10.15
-0.00,-0.49,-0.07,-0.16,1.59,9.99
-0.36,-0.54,-0.04,-0.09,1.51,9.91
-0.53,-0.46,0.01,0.01,1.35,9.83
-0.29,-0.16,0.10,-0.07,1.31,9.73
-0.22,-0.25,0.12,-0.19,1.41,9.70
-0.39,-0.50,0.13,-0.18,1.46,9.67
-0.46,-0.61,0.17,-0.03,1.40,9.69
-0.40,-0.63,0.21,0.02,1.21,9.45
-0.14,-0.59,0.20,0.07,1.19,9.45
0.06,-0.55,0.24,0.03,1.25,9.43
0.10,-0.48,0.27,0.01,1.31,9.60
-0.14,-0.37,0.25,-0.03,1.30,9.80
-0.08,-0.40,0.21,-0.06,1.17,9.83
0.12,-0.47,0.19,-0.03,1.11,9.77
0.46,-0.45,0.17,0.05,1.17,9.78
0.33,-0.16,0.19,0.12,1.48,9.88
0.04,0.04,0.16,0.05,1.48,9.87
-0.24,0.15,0.13,0.13,1.38,9.99
-0.31,0.27,0.05,0.07,1.26,10.02
-0.08,0.22,0.05,0.10,1.23,10.20
-0.18,0.01,0.03,-0.01,1.32,10.13
-0.50,-0.16,0.01,0.06,1.32,10.17
-0.71,-0.17,-0.01,0.19,1.20,10.15
-0.70,-0.14,-0.01,0.05,1.03,9.95
-0.55,-0.19,-0.04,0.03,1.03,9.89
-0.46,-0.27,0.01,0.05,1.05,9.92
-0.48,-0.26,0.04,0.05,1.06,9.88
-0.45,-0.31,0.02,-0.04,0.96,9.62
-0.17,-0.29,0.05,0.02,0.94,9.52
0.19,-0.21,0.06,0.05,1.02,9.45
0.39,-0.04,0.08,0.10,1.22,9.41
-0.12,0.22,0.11,0.02,1.32,9.36
-0.24,0.37,0.12,0.05,1.17,9.44
-0.08,0.56,0.12,0.00,1.04,9.41
0.18,0.65,0.11,-0.05,1.07,9.47
0.16,0.58,0.07,-0.05,1.35,9.80
-0.33,0.50,0.11,-0.04,1.33,9.88
-0.66,0.41,0.10,0.01,1.11,9.89
-0.57,0.32,0.08,-0.03,0.93,9.81
0.09,0.17,0.06,-0.07,1.03,9.82
0.09,0.06,0.07,-0.02,1.25,9.87
-0.15,-0.04,0.05,-0.06,1.33,9.87
-0.51,-0.14,0.05,-0.04,1.28,9.81
-0.26,-0.04,0.08,0.11,0.95,9.83
0.00,0.13,0.13,0.06,0.95,9.82
0.29,0.27,0.13,-0.04,1.10,9.93
0.19,0.32,0.09,-0.09,1.26,10.02
-0.37,0.31,0.12,0.12,1.06,10.09
-0.18,0.31,0.19,0.03,0.85,9.85
0.26,0.42,0.19,0.00,0.77,9.78
0.57,0.61,0.15,0.01,0.91,9.75
0.30,0.89,0.07,-0.08,1.19,9.94
-0.03,0.62,0.07,-0.13,1.06,9.90
0.16,0.45,0.05,0.02,0.89,9.98
0.57,0.44,0.06,0.03,0.93,9.97
0.56,0.02,-0.04,-0.33,1.30,9.84
0.17,-0.23,-0.13,-0.17,1.33,10.01
-0.17,-0.32,-0.16,0.01,1.18,10.09
-0.30,-0.40,-0.13,-0.08,0.95,9.98
0.30,-0.95,-0.09,-0.33,0.85,9.82
0.59,-1.14,-0.10,-0.20,1.02,9.92
0.46,-1.15,-0.10,-0.14,1.17,9.94
0.11,-1.12,-0.13,-0.24,1.24,9.80
-0.13,-1.18,-0.14,-0.06,0.90,9.60
0.15,-0.91,-0.10,-0.01,0.85,9.53
0.61,-0.62,-0.04,-0.13,0.98,9.39
0.79,-0.59,-0.04,-0.09,1.24,9.52
-0.17,-0.34,0.07,0.05,1.31,9.57
-0.47,-0.09,0.06,0.15,1.00,9.49
-0.06,0.26,0.07,0.09,0.78,9.38
0.50,0.47,0.08,0.10,0.83,9.45
0.38,0.64,0.16,0.16,1.42,10.07
-0.51,0.43,0.15,0.18,1.32,10.21
-0.84,0.30,0.13,0.11,0.97,10.04
-0.48,0.14,0.17,0.05,0.59,9.80
0.78,0.13,0.14,0.32,1.02,10.07
0.51,0.16,0.13,0.31,1.36,10.27
-0.36,0.02,0.10,0.13,1.37,10.19
-0.86,-0.19,0.10,0.11,0.98,10.08
0.65,-0.12,0.08,0.10,0.54,9.96
1.35,-0.03,0.05,0.05,0.91,10.10
1.08,-0.18,0.03,0.05,1.27,10.27
0.38,-0.27,-0.01,0.08,1.35,10.31
0.13,-0.11,0.01,-0.08,0.71,9.83
0.71,-0.15,-0.03,-0.21,0.67,9.68
1.32,-0.10,-0.09,-0.15,0.97,9.87
1.11,-0.09,-0.19,-0.09,1.42,10.13
-0.58,-0.65,-0.13,-0.21,1.32,9.86
-0.76,-0.81,-0.14,0.09,0.84,9.74
0.03,-0.47,-0.04,0.04,0.64,9.54
0.80,-0.17,0.04,-0.17,0.90,9.43
-0.15,-0.31,-0.14,-0.30,1.69,9.85
-1.22,-0.56,-0.22,-0.31,1.47,9.71
-1.53,-0.71,-0.23,-0.14,0.90,9.70
-1.08,-0.83,-0.20,-0.05,0.45,9.47
0.84,-1.01,-0.02,-0.05,0.80,9.47
0.94,-0.91,-0.09,-0.13,1.36,9.56
0.29,-0.97,-0.18,-0.22,1.64,9.63
-0.67,-0.98,-0.24,-0.02,1.29,9.69
0.05,-0.53,-0.17,0.30,0.21,9.48
1.59,-0.11,-0.06,0.28,0.37,9.61
2.56,0.11,-0.04,0.01,1.15,9.84
2.19,0.03,-0.09,-0.15,1.76,10.05
-0.32,-0.08,-0.39,0.07,1.26,9.98
-0.17,0.07,-0.36,0.23,0.64,9.86
0.62,0.18,-0.31,0.39,0.39,9.85
1.56,0.13,-0.24,0.18,0.71,9.73
1.22,-0.13,-0.24,0.05,1.74,9.95
0.10,-0.43,-0.33,0.01,1.65,9.67
-0.26,-0.44,-0.36,0.27,1.11,9.51
0.19,-0.12,-0.40,0.43,0.70,9.32
1.81,0.42,-0.27,0.20,1.14,9.44
1.56,0.42,-0.25,0.15,1.67,9.94
0.44,0.29,-0.29,-0.13,1.81,10.04
-0.56,-0.06,-0.33,-0.07,1.34,10.14
0.51,-0.21,-0.43,0.02,0.31,9.75
1.66,0.10,-0.34,0.25,0.61,9.92
2.10,0.34,-0.30,0.06,1.31,10.04
1.37,0.34,-0.26,-0.02,1.83,10.14
-0.80,0.90,-0.45,0.09,1.25,10.09
-0.51,1.17,-0.42,-0.13,0.71,9.79
0.49,1.14,-0.46,0.04,0.59,10.03
1.29,1.06,-0.46,-0.03,1.07,10.18
0.28,0.20,-0.47,-0.27,1.72,10.27
-0.65,-0.30,-0.54,-0.21,1.42,10.08
-1.03,-0.55,-0.58,0.05,0.83,10.04
-0.53,-0.52,-0.56,-0.02,0.45,10.01
0.84,-1.23,-0.48,-0.24,1.02,10.52
0.59,-1.78,-0.44,-0.33,1.51,10.65
-0.28,-2.19,-0.36,-0.32,1.62,10.48
-0.99,-2.42,-0.41,-0.25,1.32,10.01
-0.14,-1.79,-0.37,0.28,0.82,9.25
0.41,-0.91,-0.32,0.45,1.14,9.25
0.14,-0.09,-0.31,0.30,1.59,9.25
-0.73,0.51,-0.31,-0.02,1.71,9.18
-1.52,0.77,-0.29,-0.02,0.87,9.04
-0.60,0.93,-0.34,0.13,0.57,9.04
0.47,0.89,-0.35,0.01,0.72,8.89
0.86,0.61,-0.29,-0.07,1.07,8.95
-0.05,0.38,-0.39,0.37,1.32,9.52
-0.31,0.55,-0.32,0.26,1.15,9.67
-0.16,0.50,-0.26,0.18,1.05,10.02
0.01,0.27,-0.30,0.17,1.11,10.55
-0.61,-0.28,-0.25,0.01,1.30,11.06
-0.78,-0.66,-0.22,-0.10,1.26,10.95
-0.89,-1.02,-0.22,0.15,1.13,10.84
-0.95,-0.95,-0.25,0.41,1.08,10.69
-1.23,0.03,-0.26,0.03,1.38,10.39
-1.99,-0.15,-0.32,-0.27,1.36,10.22
-2.34,-0.42,-0.38,-0.02,1.02,10.25
-2.10,-0.52,-0.36,0.29,0.62,10.16
-0.17,-0.58,-0.29,-0.21,0.84,9.22
0.11,-0.73,-0.37,-0.04,1.33,9.16
-0.39,-0.47,-0.44,0.06,1.63,9.14
-1.29,-0.00,-0.45,0.19,1.46,9.12
-1.04,0.53,-0.38,0.12,0.52,9.04
0.25,0.73,-0.39,-0.01,0.61,9.23
1.19,0.93,-0.42,-0.09,1.20,9.65
0.69,0.98,-0.42,0.04,1.69,10.27
-1.71,0.85,-0.46,0.09,1.19,10.34
-1.53,0.97,-0.37,0.51,0.53,10.35
-0.29,1.36,-0.30,0.20,0.46,9.86
0.84,1.67,-0.22,-0.11,1.02,9.79
-1.22,1.32,-0.41,0.03,1.82,10.07
-2.34,0.99,-0.44,0.12,1.24,9.92
-2.21,0.76,-0.42,0.21,0.58,9.64
-0.83,0.57,-0.36,0.10,0.38,9.39
0.46,0.21,-0.26,-0.13,1.25,9.74
-0.30,-0.17,-0.23,-0.15,1.46,9.90
-1.16,-0.56,-0.27,-0.01,1.20,9.87
-1.03,-0.59,-0.31,-0.06,0.81,9.47
0.46,-0.17,-0.30,-0.09,0.88,9.32
0.36,0.02,-0.30,-0.06,1.21,9.58
-0.48,0.24,-0.28,0.28,1.40,10.06
-1.12,0.62,-0.23,0.05,1.25,10.00
-0.66,0.49,-0.28,-0.24,0.74,9.83
0.04,0.42,-0.32,-0.30,0.92,9.78
-0.04,0.36,-0.31,0.00,1.25,10.06
-0.80,0.38,-0.30,0.15,1.42,10.22
-1.57,-0.02,-0.28,-0.02,0.82,9.82
-0.89,0.04,-0.27,-0.04,0.68,9.73
-0.30,0.02,-0.29,-0.26,0.84,9.73
-0.31,-0.18,-0.37,-0.14,1.13,10.07
-1.20,-0.77,-0.33,0.04,1.08,9.81
-0.82,-0.80,-0.28,0.08,0.76,9.39
-0.00,-0.67,-0.21,0.06,0.63,8.98
0.63,-0.37,-0.22,0.18,0.84,8.99
0.22,0.48,-0.32,0.08,1.36,9.21
-0.41,0.43,-0.33,-0.03,1.16,9.22
-0.15,0.42,-0.31,0.09,0.82,9.49
0.42,0.38,-0.25,-0.01,0.63,9.64
1.25,-0.09,-0.22,-0.14,1.08,10.20
0.86,-0.53,-0.27,-0.31,1.30,10.28
0.20,-1.06,-0.41,-0.34,1.30,10.20
-0.15,-1.46,-0.46,0.02,1.11,10.29
0.11,-1.73,-0.34,-0.08,0.93,9.69
0.38,-1.59,-0.28,0.20,1.03,9.95
0.15,-1.34,-0.28,0.15,1.20,9.94
-0.23,-1.09,-0.27,-0.04,1.24,9.87
-0.36,-0.74,-0.26,0.06,0.98,9.69
-0.13,-0.38,-0.23,0.28,0.92,9.72
-0.12,0.23,-0.20,0.49,0.93,9.72
-0.12,0.86,-0.11,0.31,0.91,9.56
0.01,1.51,-0.12,0.25,0.82,9.56
0.15,1.73,-0.13,0.22,0.83,9.62
0.31,1.85,-0.17,0.15,0.94,9.59
0.37,1.74,-0.19,0.24,1.01,9.69
0.48,1.54,-0.15,0.34,0.96,9.68
0.56,1.61,-0.09,0.32,1.04,9.67
0.45,1.62,-0.16,0.21,1.13,9.60
0.07,1.57,-0.21,0.18,1.20,9.76
-0.44,1.52,-0.35,0.04,0.95,9.99
-0.42,1.27,-0.33,0.10,0.79,10.29
-0.18,1.10,-0.36,-0.03,0.76,10.37
-0.09,0.70,-0.33,-0.26,0.85,10.31
-0.66,0.05,-0.44,-0.31,0.92,10.60
-1.05,-0.26,-0.47,-0.30,0.80,10.48
-0.97,-0.44,-0.50,-0.03,0.56,10.61
-0.56,-0.63,-0.51,-0.20,0.54,10.10
0.22,-0.56,-0.37,-0.00,1.05,9.90
-0.32,-0.28,-0.33,-0.14,1.18,9.58
-1.03,0.01,-0.40,-0.05,0.98,9.49
-1.16,0.34,-0.43,0.05,0.67,9.32
0.03,0.71,-0.38,-0.16,0.49,9.20
0.30,0.60,-0.39,-0.23,0.69,9.34
0.19,0.33,-0.38,-0.28,0.84,9.37
-0.06,0.04,-0.38,-0.12,0.81,9.50
0.18,-0.21,-0.35,0.09,0.39,9.26
0.81,0.08,-0.36,0.19,0.47,9.27
1.27,0.56,-0.34,0.21,0.82,9.46
0.85,0.90,-0.34,0.17,1.16,9.77
-0.33,1.01,-0.30,0.18,0.91,10.12
-0.16,1.03,-0.26,0.21,0.63,10.17
0.31,1.00,-0.26,-0.08,0.55,10.12
0.56,0.87,-0.37,-0.11,0.73,10.24
-0.26,0.19,-0.41,-0.07,1.09,10.61
-1.03,-0.39,-0.39,0.03,0.88,10.67
-1.15,-0.86,-0.34,0.01,0.50,10.48
-0.91,-1.22,-0.30,-0.13,0.20,10.19
-0.19,-1.54,-0.39,-0.30,0.34,9.98
-0.17,-1.73,-0.50,-0.27,0.56,9.91
-0.34,-1.93,-0.45,-0.03,0.70,9.98
-0.64,-2.03,-0.28,-0.04,0.55,9.80
0.03,-1.71,-0.35,0.04,0.13,9.34
0.67,-1.11,-0.34,0.03,0.32,9.24
1.03,-0.64,-0.35,-0.35,0.76,9.10
0.84,-0.48,-0.45,-0.26,1.04,9.36
-0.07,-0.40,-0.48,0.01,0.75,9.32
-0.10,-0.04,-0.49,0.04,0.31,9.26
0.49,0.23,-0.55,-0.03,0.17,9.30
1.10,0.28,-0.53,-0.07,0.38,9.57
0.58,0.19,-0.57,-0.05,0.93,10.10
-0.19,-0.02,-0.59,0.07,0.73,9.97
-0.38,-0.00,-0.69,0.34,0.28,9.68
0.32,0.40,-0.55,0.51,0.02,9.27
1.81,1.61,-0.56,0.63,0.72,9.28
1.31,2.10,-0.48,0.66,1.16,9.64
0.16,2.47,-0.54,0.57,1.21,9.90
-0.67,2.58,-0.53,0.43,0.82,10.11
0.17,1.88,-0.43,0.17,-0.09,10.44
1.16,1.37,-0.41,0.20,0.10,10.72
1.52,0.86,-0.41,-0.00,0.67,10.73
0.83,0.27,-0.41,-0.14,1.11,10.65
-1.26,-0.36,-0.44,0.33,0.40,10.43
-0.58,-0.27,-0.29,0.24,-0.01,10.19
0.40,-0.31,-0.21,0.05,0.07,10.09
0.91,-0.46,-0.28,-0.30,0.61,9.98
-0.30,-0.87,-0.33,-0.17,1.08,9.90
-0.77,-0.88,-0.36,-0.11,0.69,9.47
-0.56,-0.66,-0.29,0.14,0.22,9.23
0.41,-0.06,-0.27,0.17,0.19,9.12
0.87,0.77,-0.32,-0.35,0.84,9.42
0.21,0.66,-0.40,-0.40,0.97,9.76
-0.59,0.35,-0.45,-0.31,0.67,9.84
-0.59,0.22,-0.50,-0.16,0.23,9.80
0.79,-0.06,-0.47,-0.18,0.30,9.25
1.16,0.11,-0.51,-0.01,0.73,9.43
0.68,0.49,-0.44,0.08,1.08,9.65
-0.56,0.79,-0.51,0.08,1.08,9.82
-1.00,0.58,-0.54,-0.15,0.11,9.79
0.19,0.37,-0.57,-0.20,0.04,9.91
0.94,0.05,-0.56,-0.18,0.43,10.15
0.62,-0.27,-0.60,-0.03,0.92,10.49
-1.80,-0.67,-0.61,-0.13,0.51,10.35
-1.74,-0.80,-0.65,-0.03,-0.14,10.29
-0.67,-0.83,-0.59,-0.05,-0.34,10.36
0.22,-0.88,-0.63,-0.20,0.07,10.37
-0.57,-1.43,-0.63,-0.23,0.77,10.22
-0.93,-1.67,-0.64,-0.12,0.60,9.74
-0.65,-1.45,-0.61,0.21,0.27,9.50
0.05,-0.94,-0.63,0.28,0.18,9.03
0.55,0.33,-0.58,0.15,0.67,9.26
-0.01,0.43,-0.70,-0.13,0.73,9.28
-0.22,0.23,-0.68,-0.05,0.54,9.68
-0.01,-0.22,-0.67,-0.07,0.23,9.67
0.90,-0.74,-0.62,0.23,0.07,9.91
1.05,-0.68,-0.60,0.15,0.26,9.68
1.02,-0.43,-0.61,0.20,0.60,9.84
0.53,-0.14,-0.57,0.38,0.78,9.93
-0.51,0.39,-0.56,0.35,0.62,9.88
-0.47,0.69,-0.50,0.38,0.42,9.70
-0.14,0.95,-0.46,0.42,0.43,9.77
0.04,1.29,-0.44,0.41,0.64,9.88
-1.08,1.47,-0.40,0.36,0.76,10.10
-1.70,1.56,-0.42,0.30,0.47,10.14
-1.94,1.63,-0.39,0.25,0.06,10.21
-1.62,1.57,-0.40,0.13,-0.24,10.30
-0.74,0.67,-0.38,-0.01,-0.10,10.43
-0.58,0.24,-0.39,-0.10,0.16,10.21
-1.05,-0.22,-0.39,0.03,0.21,10.12
-1.46,-0.27,-0.52,0.04,0.10,9.94
-0.73,-0.33,-0.46,-0.02,-0.06,9.62
-0.07,-0.46,-0.52,-0.24,0.20,9.47
-0.14,-0.70,-0.51,-0.18,0.47,9.53
-0.60,-0.68,-0.54,-0.02,0.50,9.55
-1.11,-0.33,-0.54,-0.13,-0.06,9.03
-0.31,-0.05,-0.56,-0.04,-0.20,8.94
0.30,0.20,-0.61,-0.09,-0.30,8.96
0.74,0.55,-0.64,-0.11,-0.17,9.03
0.78,0.78,-0.76,-0.11,-0.00,9.39
0.86,0.93,-0.78,-0.11,-0.03,9.51
1.15,1.02,-0.72,-0.09,-0.04,9.66
1.55,0.93,-0.79,-0.17,0.13,9.86
1.02,0.50,-0.79,-0.12,0.57,10.19
0.43,0.17,-0.79,-0.15,0.49,10.13
0.15,-0.10,-0.77,0.01,0.22,10.04
0.15,-0.23,-0.79,0.20,0.05,9.92
0.22,0.36,-0.72,0.06,0.20,10.26
-0.53,0.26,-0.72,-0.11,0.29,10.51
-1.34,-0.02,-0.75,0.07,0.12,11.09
-1.65,-0.18,-0.75,0.03,-0.12,11.22
-1.26,-0.83,-0.61,-0.09,-0.39,10.67
-0.97,-0.96,-0.66,0.08,-0.19,10.41
-0.98,-0.69,-0.66,0.17,0.11,10.17
-1.32,-0.37,-0.60,0.13,0.30,9.94
-1.85,-0.41,-0.67,-0.03,-0.02,9.30
-1.34,-0.39,-0.64,0.12,-0.22,9.19
-0.66,-0.16,-0.65,0.17,-0.27,9.08
-0.19,-0.14,-0.66,-0.00,-0.11,8.90
-0.16,-0.30,-0.66,0.06,0.14,8.97
-0.43,-0.21,-0.65,0.15,-0.01,8.99
-0.45,0.09,-0.68,0.21,-0.24,9.01
-0.12,0.47,-0.65,0.24,-0.38,9.16
0.69,0.84,-0.62,-0.03,-0.14,9.42
0.80,0.60,-0.64,-0.15,0.09,9.44
0.68,0.42,-0.69,0.11,0.28,9.75
0.28,0.48,-0.73,0.18,0.38,9.84
-0.40,0.43,-0.67,0.15,-0.04,9.85
-0.22,0.38,-0.64,0.17,-0.17,10.03
0.09,0.43,-0.62,0.01,-0.04,10.28
-0.01,0.38,-0.60,-0.03,0.19,10.78
-1.45,-0.64,-0.63,-0.38,0.30,10.87
-2.03,-1.20,-0.62,-0.12,-0.21,10.78
-1.84,-1.23,-0.66,-0.02,-0.61,10.36
-0.99,-1.17,-0.58,-0.03,-0.56,9.89
-0.26,-0.86,-0.57,0.09,0.27,9.90
-1.04,-0.59,-0.53,-0.10,0.40,9.57
-1.85,-0.45,-0.61,-0.17,0.00,9.30
-1.54,-0.12,-0.70,0.04,-0.41,9.30
0.43,0.26,-0.69,-0.05,-0.19,9.15
0.78,0.39,-0.64,0.16,0.31,9.63
0.11,0.47,-0.60,0.03,0.52,9.71
-1.11,0.45,-0.67,0.03,0.17,9.69
-0.51,0.66,-0.75,-0.24,-0.66,9.47
0.52,0.43,-0.83,-0.04,-0.46,9.89
0.96,0.18,-0.83,0.21,-0.08,10.25
0.58,-0.12,-0.73,-0.06,0.23,9.89
-0.16,-0.52,-0.74,0.32,0.04,9.74
0.08,-0.20,-0.73,0.21,-0.08,9.57
0.14,0.22,-0.70,0.32,-0.01,9.71
-0.11,0.55,-0.71,0.33,0.10,9.89
-0.26,0.43,-0.59,0.16,-0.14,9.75
0.24,0.52,-0.61,0.32,-0.19,9.77
0.51,0.77,-0.57,0.30,0.02,9.91
0.21,1.03,-0.51,0.22,0.19,10.09
-1.21,1.09,-0.50,0.26,-0.42,10.39
-0.70,1.11,-0.49,0.08,-0.83,10.19
0.52,1.04,-0.43,-0.07,-0.69,10.17
1.36,0.78,-0.49,-0.05,-0.01,10.22
-0.16,-0.19,-0.42,0.05,0.75,10.03
-1.37,-0.19,-0.51,0.20,0.13,9.66
-1.35,0.08,-0.59,0.17,-0.49,9.13
-0.13,0.26,-0.50,0.01,-0.65,8.84
1.44,0.27,-0.57,0.02,0.42,9.41
0.47,0.28,-0.53,0.00,0.63,9.56
-0.87,0.30,-0.65,-0.09,0.23,9.48
-1.12,0.39,-0.70,-0.22,-0.44,9.22
1.63,0.41,-0.79,-0.22,-0.59,9.32
2.12,0.32,-0.74,-0.13,0.06,9.60
1.23,0.14,-0.80,-0.09,0.49,9.76
0.05,0.08,-0.88,-0.24,0.40,9.65
0.51,-0.28,-1.00,-0.23,-0.27,9.39
1.22,-0.25,-0.97,-0.17,-0.14,9.69
1.26,-0.22,-1.01,-0.15,0.17,10.04
0.36,-0.39,-1.02,-0.13,0.31,10.38
-0.08,-1.11,-1.04,-0.32,-0.19,10.08
0.67,-1.26,-0.95,-0.15,-0.25,9.99
0.90,-1.14,-1.01,0.10,-0.10,10.03
0.27,-0.63,-1.00,0.34,-0.02,10.33
-0.28,-0.24,-1.02,-0.30,-0.34,10.22
0.56,-0.75,-1.00,-0.33,-0.34,10.38
1.33,-1.41,-0.99,-0.23,-0.03,10.29
1.13,-1.83,-0.92,0.13,0.29,10.33
-0.42,-1.24,-0.91,0.28,-0.03,9.76
-0.05,-0.81,-0.89,0.11,-0.29,9.46
0.95,-0.41,-0.88,0.16,-0.18,9.73
0.99,-0.30,-0.89,0.20,0.35,10.16
-1.19,-0.46,-0.78,0.18,0.22,10.59
-1.74,-0.74,-0.86,0.17,-0.34,9.98
-0.65,-0.68,-0.76,0.12,-0.71,9.23
0.86,-0.38,-0.77,0.25,-0.56,8.93
0.77,0.67,-0.71,0.87,0.55,9.40
-0.89,1.62,-0.79,0.91,0.45,9.81
-1.58,2.23,-0.80,0.12,0.04,9.51
-1.24,1.68,-0.77,-0.27,-0.52,9.61
1.37,0.13,-0.78,0.02,-0.11,10.02
1.06,0.08,-0.75,0.36,0.44,10.36
-0.47,0.12,-0.81,0.41,0.48,10.24
-1.66,-0.02,-0.90,0.00,-0.11,9.93
0.68,-0.06,-0.88,0.08,-0.51,10.07
1.27,-0.20,-0.82,0.09,0.18,10.58
0.20,-0.33,-0.76,0.03,0.73,10.66
-1.66,-0.56,-0.78,-0.06,0.39,10.37
-1.14,-0.49,-0.84,-0.13,-0.72,9.01
0.60,-0.04,-0.82,0.20,-0.45,9.05
1.14,0.70,-0.78,0.55,0.18,9.48
-0.02,1.36,-0.71,0.22,0.57,9.49
-1.49,1.21,-0.83,-0.20,-0.49,9.27
0.26,0.92,-0.83,-0.46,-0.75,9.09
1.74,0.63,-0.85,-0.20,-0.34,9.41
1.83,0.51,-0.89,0.26,0.26,9.99
-0.39,0.17,-0.87,-0.21,-0.01,9.37
0.38,0.03,-0.88,-0.24,-0.36,9.14
1.57,0.06,-0.91,-0.03,-0.20,9.52
1.37,0.26,-0.98,0.20,0.26,10.21
-0.88,-0.07,-1.09,-0.49,0.12,10.36
-0.55,-0.90,-1.08,-0.24,-0.28,10.30
0.35,-1.34,-0.94,0.02,-0.23,10.41
0.59,-1.18,-0.82,0.01,0.24,10.28
-1.92,-0.89,-0.97,0.02,0.13,10.35
-1.91,-0.59,-0.99,-0.06,-0.43,10.19
-0.73,-0.50,-0.92,-0.01,-0.54,10.43
0.09,-0.72,-0.80,-0.03,-0.04,10.56
-1.50,-1.15,-0.71,0.21,0.23,10.23
-1.96,-0.63,-0.72,0.15,-0.24,9.71
-1.25,-0.18,-0.76,-0.00,-0.52,9.10
-0.15,0.05,-0.75,0.28,-0.29,9.24
-0.88,0.54,-0.72,0.22,0.23,9.12
-1.27,0.51,-0.70,0.08,-0.16,8.83
-0.47,0.46,-0.71,0.29,-0.54,8.69
1.03,0.74,-0.68,0.39,-0.41,8.91
0.87,0.87,-0.74,-0.02,0.38,9.30
0.00,0.40,-0.90,-0.03,0.14,9.50
-0.05,0.08,-0.96,0.02,-0.32,9.60
0.88,-0.07,-0.87,0.13,-0.48,9.78
1.77,-0.70,-0.78,-0.04,0.27,10.17
0.63,-0.84,-0.81,0.07,0.41,10.30
-0.16,-0.48,-0.85,0.16,0.19,10.26
-0.28,-0.09,-0.86,0.18,-0.09,10.17
-0.03,0.44,-0.80,0.05,0.21,10.25
-0.68,0.56,-0.76,0.09,0.31,10.31
-1.09,0.63,-0.75,0.11,0.20,10.14
-1.38,0.60,-0.73,0.03,-0.05,9.89
-0.83,0.94,-0.72,0.05,-0.14,9.57
-0.92,1.01,-0.72,-0.01,-0.18,9.47
-0.85,1.17,-0.79,0.04,-0.25,9.50
-0.64,1.09,-0.71,0.03,-0.26,9.49
-0.01,0.95,-0.71,0.11,-0.03,9.89
-0.34,0.72,-0.69,-0.11,0.01,9.77
-0.47,0.62,-0.80,-0.07,-0.12,9.85
-0.23,0.48,-0.81,-0.05,-0.12,9.88
-0.15,0.03,-0.73,0.11,0.27,10.22
-0.76,-0.35,-0.68,0.10,0.15,10.08
-0.96,-0.37,-0.74,-0.06,-0.15,9.73
-0.32,-0.19,-0.71,-0.11,-0.25,9.37
0.15,0.03,-0.79,0.07,0.22,9.74
-0.67,0.10,-0.74,0.16,0.20,9.74
-1.11,0.16,-0.67,0.19,-0.23,9.69
-0.34,0.32,-0.66,-0.09,-0.60,9.35
1.46,0.41,-0.79,-0.06,0.09,9.77
0.59,0.43,-0.79,-0.03,0.52,10.09
-0.92,0.28,-0.87,-0.12,0.27,10.19
-1.17,0.13,-0.87,0.10,-0.36,10.27
1.32,-0.03,-0.63,-0.09,-0.33,10.12
1.62,-0.08,-0.60,-0.26,0.46,10.16
0.20,-0.41,-0.73,-0.37,0.73,9.97
-1.34,-0.65,-0.93,-0.03,0.29,9.70
-0.22,-0.02,-0.71,0.35,-0.82,9.18
1.18,0.38,-0.60,0.36,-0.45,9.43
1.40,0.62,-0.55,0.09,0.19,9.80
0.36,0.66,-0.64,-0.40,0.60,9.84
-1.31,0.15,-0.91,-0.16,-0.22,10.20
-0.46,-0.19,-0.83,-0.09,-0.62,9.85
0.82,-0.40,-0.67,0.19,-0.55,9.80
1.45,-0.35,-0.65,0.06,0.00,9.60
-0.45,-0.11,-0.74,-0.09,0.64,9.67
-1.44,-0.15,-0.87,-0.06,0.18,9.66
-1.38,-0.26,-0.88,-0.05,-0.45,9.63
-0.30,-0.44,-0.84,-0.18,-0.71,9.49
1.50,-1.04,-0.71,-0.26,0.04,9.58
0.94,-1.22,-0.73,-0.13,0.35,9.54
0.05,-1.18,-0.81,0.11,0.23,9.40
0.10,-0.73,-0.78,0.27,-0.16,9.17
1.16,0.88,-0.71,0.35,-0.37,9.45
1.41,1.51,-0.69,0.16,-0.02,9.83
0.93,1.50,-0.69,-0.08,0.23,10.33
0.39,1.09,-0.79,-0.28,0.22,10.51
0.40,0.01,-0.80,-0.04,-0.06,10.42
0.40,-0.36,-0.77,0.10,-0.04,10.25
0.19,-0.47,-0.76,0.26,0.03,10.24
-0.13,-0.42,-0.73,0.10,0.08,9.94
-0.25,-0.88,-0.74,-0.07,0.00,9.66
-0.10,-1.05,-0.77,-0.00,-0.05,9.60
-0.14,-1.09,-0.75,0.25,-0.12,9.66
-0.10,-0.90,-0.70,0.19,-0.26,9.54
0.79,-0.71,-0.59,0.30,-0.35,9.40
1.52,-0.13,-0.56,0.22,-0.08,9.51
1.30,0.38,-0.53,0.15,0.25,9.68
0.43,0.68,-0.55,0.11,0.30,9.97
0.27,0.64,-0.58,0.08,-0.39,9.99
1.35,0.71,-0.50,0.02,-0.35,9.96
1.75,0.63,-0.45,0.07,0.04,10.11
1.14,0.58,-0.48,0.07,0.43,10.36
-0.69,0.47,-0.54,0.09,0.06,10.32
-0.47,0.28,-0.56,-0.19,-0.31,9.91
0.25,0.10,-0.56,0.02,-0.33,9.95
0.56,0.18,-0.54,0.31,-0.02,10.23
-0.70,0.35,-0.45,0.05,0.19,9.95
-0.90,0.22,-0.41,0.13,-0.05,9.81
-0.52,0.26,-0.42,0.04,-0.26,9.54
-0.07,0.44,-0.43,0.14,-0.21,9.57
-0.22,0.58,-0.54,-0.22,0.13,9.46
-0.61,0.27,-0.52,-0.03,0.01,9.54
-0.29,0.17,-0.45,-0.06,-0.20,9.43
0.33,0.09,-0.43,-0.00,-0.26,9.36
0.87,-0.01,-0.50,-0.20,0.03,9.18
0.51,0.15,-0.53,-0.04,0.08,9.34
0.34,0.39,-0.54,-0.06,-0.01,9.41
0.39,0.44,-0.56,0.02,-0.16,9.67
1.03,0.08,-0.47,-0.28,-0.10,10.06
0.98,-0.13,-0.48,-0.18,0.08,10.56
0.46,-0.30,-0.54,-0.30,0.25,10.65
-0.25,-0.83,-0.39,0.19,0.12,10.51
-0.37,-0.50,-0.31,0.35,-0.03,10.31
-0.51,0.40,-0.28,0.51,-0.06,10.25
-0.71,1.37,-0.21,0.42,0.05,10.29
-1.09,2.03,-0.22,-0.01,0.22,10.30
-1.99,1.19,-0.29,-0.20,-0.03,10.11
-1.66,0.61,-0.30,0.21,-0.36,9.93
-0.99,0.52,-0.22,0.31,-0.46,9.49
-0.38,0.57,-0.18,-0.00,-0.29,8.93
-0.38,0.03,-0.30,-0.05,0.37,9.16
-1.17,-0.13,-0.33,0.05,0.30,9.56
-1.77,-0.38,-0.35,0.01,-0.13,9.83
-1.14,-0.90,-0.28,-0.35,-0.56,9.76
1.10,-2.30,-0.29,-0.34,-0.17,10.00
0.90,-2.35,-0.31,-0.23,0.36,10.05
-0.24,-2.29,-0.33,-0.25,0.45,9.91
-0.93,-2.10,-0.44,-0.16,0.09,9.84
0.05,-1.25,-0.33,-0.08,-0.29,9.86
0.50,-0.75,-0.30,-0.08,0.09,10.23
-0.20,-0.48,-0.27,-0.21,0.42,10.31
-1.31,-0.32,-0.30,-0.28,0.33,10.10
-1.07,0.08,-0.43,-0.16,-0.56,9.39
-0.16,0.19,-0.41,-0.04,-0.56,9.36
0.36,0.37,-0.44,0.18,-0.27,9.61
0.25,0.31,-0.42,-0.05,0.03,9.48
0.12,-0.28,-0.31,0.08,-0.14,9.57
0.50,-0.33,-0.32,0.01,-0.30,9.44
0.93,-0.12,-0.33,0.17,-0.28,9.59
1.13,-0.11,-0.39,0.04,-0.04,9.63
0.52,-0.68,-0.36,0.17,0.36,9.97
-0.04,-0.69,-0.36,0.40,0.33,10.10
-0.50,-0.38,-0.25,0.29,0.15,10.03
-0.95,-0.11,-0.23,0.10,-0.06,10.00
-0.75,-0.10,-0.32,0.02,-0.09,10.08
-0.57,-0.08,-0.25,0.06,0.18,10.09
-0.96,-0.22,-0.23,0.17,0.31,10.03
-1.73,-0.24,-0.22,0.28,0.14,9.88
-1.49,0.47,-0.14,0.31,-0.56,9.55
-0.55,0.78,-0.10,-0.00,-0.51,9.50
0.09,0.69,-0.08,-0.04,-0.15,9.69
-0.01,0.33,-0.13,0.00,0.25,9.88
-0.83,0.07,-0.09,0.13,-0.26,9.29
-0.15,0.09,-0.13,0.16,-0.66,8.87
1.05,0.43,-0.04,0.27,-0.60,8.80
1.87,0.95,0.05,0.34,-0.12,9.08
0.47,1.69,0.02,0.06,0.55,9.86
-0.46,1.46,0.04,-0.12,0.16,9.91
-0.21,1.04,0.02,-0.25,-0.42,10.02
0.87,0.64,-0.03,-0.40,-0.59,10.01
1.50,-0.47,0.04,-0.06,0.41,10.32
0.44,-0.59,0.01,-0.07,0.60,10.28
-0.69,-0.64,0.12,-0.04,0.24,10.00
-0.83,-0.56,0.13,0.03,-0.28,9.87
0.80,-0.28,0.18,-0.28,-0.21,9.91
0.75,-0.17,0.12,-0.13,0.29,10.37
-0.29,-0.21,0.12,-0.15,0.46,10.29
-1.09,-0.33,0.19,-0.25,0.14,9.85
-0.03,0.03,0.23,0.15,-0.63,9.35
1.06,0.55,0.29,-0.03,-0.36,9.14
1.41,0.97,0.28,-0.07,0.18,9.20
0.82,1.09,0.26,-0.10,0.49,9.40
-0.74,1.19,0.17,-0.04,-0.22,9.63
-0.19,1.18,0.20,-0.04,-0.82,9.90
1.09,1.00,0.23,-0.34,-0.81,10.24
2.07,0.52,0.25,-0.45,-0.18,10.75
0.51,-0.97,0.16,-0.30,0.71,11.23
-0.84,-1.27,0.12,-0.21,0.53,10.96
-1.58,-1.35,0.08,-0.12,-0.12,10.45
-1.13,-1.37,0.10,-0.15,-0.57,9.89
0.78,-1.46,0.28,-0.03,0.16,9.77
0.06,-1.53,0.21,-0.02,0.66,9.60
-1.28,-1.65,0.27,-0.14,0.48,9.09
-1.72,-1.42,0.25,-0.06,-0.16,8.64
0.20,-0.02,0.29,0.40,-0.48,8.56
0.74,0.65,0.35,0.21,-0.14,8.81
0.40,0.97,0.38,-0.00,0.19,9.09
-0.20,1.12,0.35,0.08,0.13,9.46
0.22,1.57,0.33,0.08,-0.32,9.67
0.84,1.51,0.39,-0.04,-0.23,9.75
0.92,1.45,0.32,0.12,0.03,10.25
0.33,1.52,0.29,0.26,0.22,10.62
-0.25,0.89,0.30,-0.26,-0.05,10.58
0.08,0.11,0.28,-0.28,-0.04,10.57
-0.05,-0.56,0.26,-0.20,0.14,10.62
-0.60,-0.94,0.22,-0.03,0.15,10.62
-1.00,-1.82,0.23,-0.32,-0.25,10.01
-0.49,-2.25,0.24,-0.26,-0.30,9.90
-0.00,-2.31,0.24,-0.22,-0.08,10.01
-0.25,-2.30,0.26,-0.35,0.14,9.81
-0.71,-2.16,0.22,-0.10,-0.25,9.54
-0.08,-1.77,0.30,-0.03,-0.48,9.08
0.81,-1.14,0.32,0.02,-0.41,9.01
1.45,-0.16,0.34,0.12,-0.04,9.17
0.22,1.34,0.21,-0.07,0.20,9.24
0.27,1.86,0.23,0.03,-0.08,9.45
0.71,1.89,0.28,-0.08,-0.28,9.36
1.28,1.90,0.25,0.13,-0.24,9.66
1.14,2.01,0.20,-0.19,0.09,9.61
0.82,1.81,0.15,0.01,0.13,10.00
0.67,1.56,0.11,0.11,0.12,10.24
0.42,1.14,0.13,-0.06,0.06,10.12
0.20,0.23,0.14,0.00,-0.14,10.43
0.08,-0.26,0.13,-0.24,-0.11,10.38
0.10,-0.70,0.19,-0.03,-0.00,10.62
-0.06,-1.19,0.21,-0.20,0.17,10.52
-1.00,-2.01,0.30,-0.03,0.15,10.40
-1.37,-1.97,0.31,-0.05,-0.11,10.12
-1.13,-1.68,0.40,-0.05,-0.28,9.89
-0.75,-1.49,0.42,-0.23,-0.23,9.54
-0.53,-0.93,0.50,0.06,0.07,9.46
-0.96,-0.45,0.44,0.03,0.01,9.16
-0.88,0.17,0.45,0.07,-0.22,9.00
-0.35,0.64,0.47,-0.05,-0.41,8.70
0.98,1.21,0.44,0.13,-0.11,8.99
0.86,1.51,0.43,0.12,0.09,9.16
0.46,1.61,0.39,-0.03,0.09,9.21
0.45,1.53,0.35,-0.04,-0.19,9.35
1.80,1.08,0.35,-0.08,-0.16,9.76
1.94,0.71,0.28,-0.08,0.16,10.24
1.20,0.19,0.22,-0.29,0.35,10.37
0.36,-0.46,0.21,-0.22,0.11,10.47
0.98,-1.22,0.21,-0.26,-0.28,10.33
1.30,-1.54,0.22,-0.27,0.03,10.39
0.86,-1.81,0.20,-0.21,0.35,10.50
-0.00,-1.91,0.17,-0.20,0.33,10.45
-0.38,-1.71,0.26,-0.18,-0.25,9.99
0.20,-1.47,0.26,-0.29,-0.22,9.86
0.48,-1.21,0.24,-0.13,0.08,10.00
-0.03,-0.94,0.23,-0.02,0.40,10.18
-1.74,-0.31,0.27,-0.14,-0.02,9.88
-1.57,-0.04,0.26,-0.01,-0.44,9.77
-0.75,0.25,0.28,0.03,-0.53,9.63
0.05,0.48,0.36,-0.03,-0.26,9.59
-0.46,0.68,0.33,0.14,0.23,9.59
-0.86,0.85,0.38,0.29,-0.01,9.49
-0.53,1.15,0.38,0.25,-0.34,9.33
0.08,1.31,0.35,0.16,-0.49,9.21
1.21,1.31,0.48,0.29,-0.11,9.82
1.16,1.25,0.44,-0.02,0.18,9.81
0.97,0.82,0.48,-0.12,0.19,9.91
0.58,0.25,0.39,0.06,-0.02,10.10
0.89,-0.09,0.49,0.10,-0.58,10.08
1.81,-0.15,0.48,0.09,-0.45,10.12
2.35,-0.38,0.49,-0.22,0.12,10.06
1.76,-0.73,0.53,-0.23,0.58,10.18
-0.29,-0.71,0.48,0.09,0.02,9.94
-0.02,-0.39,0.51,-0.18,-0.49,9.44
1.02,-0.17,0.50,-0.14,-0.53,9.32
1.73,0.01,0.52,0.06,-0.03,9.75
-0.05,0.30,0.60,-0.13,0.73,9.99
-1.30,0.28,0.63,-0.10,0.29,9.86
-1.39,0.30,0.62,-0.25,-0.35,9.38
-0.55,0.43,0.65,-0.14,-0.56,9.43
0.15,0.65,0.62,-0.18,0.28,9.77
-0.84,0.33,0.67,-0.13,0.42,9.79
-1.40,0.21,0.71,-0.08,0.04,9.58
-1.12,0.23,0.74,-0.04,-0.41,9.33
0.81,0.80,0.72,-0.24,-0.17,9.47
0.61,0.62,0.73,-0.20,0.25,9.75
-0.05,0.40,0.73,-0.12,0.32,10.08
-0.52,0.25,0.73,-0.14,-0.00,9.96
0.74,-0.06,0.78,-0.26,-0.52,9.76
1.51,-0.24,0.76,-0.43,-0.15,9.81
1.37,-0.39,0.72,-0.27,0.32,10.26
0.28,-0.54,0.68,-0.18,0.46,10.46
-0.42,-1.18,0.80,-0.29,-0.41,10.11
0.59,-1.30,0.80,-0.34,-0.49,9.78
1.51,-1.13,0.85,-0.23,-0.06,9.82
1.15,-1.01,0.89,-0.22,0.47,9.80
-0.96,-0.77,0.84,0.10,0.12,9.71
-0.93,-0.41,0.93,0.06,-0.37,9.37
0.12,0.03,1.07,-0.02,-0.55,9.40
0.84,0.35,1.11,-0.00,-0.16,9.76
-0.44,0.28,1.20,-0.07,0.38,10.32
-1.06,0.19,1.19,0.05,0.04,10.18
-0.65,0.32,1.35,0.07,-0.44,9.87
0.16,0.72,1.40,0.34,-0.52,9.80
0.43,1.93,1.68,0.21,0.27,10.38
-0.61,1.93,1.63,-0.05,0.36,10.34
-0.94,1.64,1.71,-0.11,-0.03,10.45
-0.56,1.43,1.68,-0.06,-0.36,10.36
0.05,1.22,1.93,0.13,-0.17,10.51
-0.29,0.99,1.88,-0.05,0.01,10.35
-0.38,0.63,2.00,-0.16,0.08,10.22
-0.26,0.20,2.07,-0.17,0.08,10.10
-0.76,-0.12,2.24,-0.15,0.01,9.88
-1.10,-0.20,2.21,-0.17,-0.17,9.56
-0.69,-0.24,2.30,-0.23,-0.34,9.46
0.01,-0.33,2.34,-0.37,-0.23,9.23
-0.09,-0.32,2.54,-0.32,0.32,9.29
-0.94,-0.18,2.51,-0.36,0.20,8.94
-1.20,0.07,2.62,-0.29,-0.28,8.77
-0.50,0.50,2.66,-0.34,-0.59,8.55
1.52,1.25,2.84,-0.30,0.20,8.91
0.78,1.65,2.83,-0.06,0.61,9.41
-0.66,2.19,2.91,-0.04,0.52,9.79
-1.57,2.57,2.98,-0.45,-0.20,9.59
1.02,2.01,3.11,-0.46,-0.63,9.79
2.03,1.86,3.18,-0.41,0.01,9.98
1.27,1.75,3.24,-0.32,0.59,10.23
-0.34,1.49,3.31,-0.35,0.56,10.18
-0.71,0.88,3.40,-0.39,-0.62,9.88
0.68,0.72,3.48,-0.51,-0.67,9.84
1.52,0.36,3.58,-0.57,-0.00,10.19
0.85,-0.19,3.65,-0.59,0.57,10.57
-1.43,-1.22,3.79,-0.53,0.05,10.40
-1.13,-1.51,3.92,-0.54,-0.52,9.87
-0.11,-1.43,4.00,-0.50,-0.60,9.82
0.64,-1.07,4.08,-0.63,-0.21,9.85
-0.62,-0.87,4.17,-0.63,0.39,10.26
-1.26,-1.00,4.20,-0.84,0.12,9.79
-1.03,-1.06,4.29,-0.51,-0.27,9.63
-0.30,-0.66,4.46,-0.18,-0.45,9.66
0.01,0.89,4.50,-0.53,0.12,9.57
-0.49,1.12,4.50,-0.47,0.30,9.83
-0.95,1.10,4.52,-0.49,0.24,10.01
-1.15,0.94,4.61,-0.50,-0.08,9.93
-0.27,1.15,4.74,-0.27,-0.38,9.97
-0.04,1.14,4.81,-0.49,-0.17,9.84
-0.10,1.00,4.84,-0.43,0.11,10.23
-0.48,0.65,4.87,-0.58,0.26,10.26
-1.40,-0.57,4.95,-0.48,-0.23,10.27
-1.08,-0.89,4.93,-0.54,-0.44,9.97
-0.44,-1.21,5.07,-0.48,-0.27,9.90
-0.06,-1.48,5.25,-0.55,0.02,9.90
-1.19,-1.64,5.35,-0.48,0.26,9.70
-1.59,-1.33,5.35,-0.49,-0.21,9.30
-1.05,-0.88,5.39,-0.42,-0.45,9.09
-0.04,-0.38,5.56,-0.52,-0.45,8.94
0.14,0.53,5.59,-0.40,0.25,9.32
-0.57,0.83,5.66,-0.73,0.08,9.09
-0.71,1.01,5.62,-0.47,-0.25,9.23
0.01,1.33,5.80,-0.45,-0.43,9.38
0.92,1.41,5.79,-0.62,0.09,9.60
0.47,1.18,5.85,-0.70,0.24,9.64
-0.14,0.99,5.77,-0.67,0.09,9.54
-0.25,0.94,5.89,-0.39,-0.23,9.83
0.97,0.58,6.03,-0.74,-0.09,10.06
0.78,0.14,6.09,-0.73,0.24,10.61
-0.25,-0.43,6.04,-0.86,0.24,10.57
-0.80,-0.92,6.14,-0.72,-0.11,10.53
0.35,-0.93,6.37,-0.55,-0.31,10.17
0.52,-0.63,6.47,-0.53,-0.02,10.36
-0.10,-0.48,6.48,-0.70,0.25,10.35
-0.77,-0.51,6.55,-0.82,0.20,10.37
-0.79,-0.49,6.64,-0.51,-0.33,9.94
-0.18,-0.10,6.80,-0.55,-0.34,9.70
0.13,0.20,6.80,-0.77,-0.15,9.32
-0.02,0.32,6.88,-0.67,0.00,9.43
-0.11,0.51,6.85,-0.70,0.03,9.25
-0.10,0.44,6.97,-0.66,-0.11,9.35
0.08,0.33,6.91,-0.69,-0.24,9.11
0.40,0.21,7.01,-0.65,-0.31,9.15
1.15,0.22,7.01,-0.85,-0.09,9.21
1.24,-0.02,7.08,-0.88,0.22,9.65
0.73,-0.38,6.99,-0.87,0.34,9.86
-0.10,-0.77,7.02,-0.70,0.20,10.07
0.14,-0.86,7.18,-0.86,-0.49,9.69
0.74,-0.85,7.23,-0.75,-0.34,9.84
1.04,-0.61,7.20,-0.79,0.08,9.89
0.60,-0.41,7.19,-0.81,0.46,10.08
-0.97,-0.36,7.22,-0.88,0.02,9.94
-0.79,-0.30,7.31,-0.58,-0.40,10.01
-0.08,0.10,7.40,-0.60,-0.53,9.77
0.52,0.39,7.43,-0.81,-0.29,9.59
0.18,0.64,7.42,-0.77,0.26,9.96
-0.49,0.65,7.46,-0.82,0.14,9.96
-0.67,0.60,7.43,-0.66,-0.27,9.92
-0.08,0.44,7.53,-0.78,-0.58,9.67
1.54,0.49,7.63,-0.61,-0.13,9.89
1.26,0.44,7.71,-0.81,0.35,10.10
0.33,0.08,7.62,-1.00,0.41,9.98
-0.25,-0.38,7.67,-0.82,0.09,9.95
0.69,-0.49,7.77,-0.77,-0.39,9.61
1.03,-0.61,7.94,-0.68,-0.19,9.96
0.94,-0.67,7.91,-0.96,0.15,10.06
0.31,-0.94,7.92,-1.05,0.36,10.23
-0.51,-1.48,8.02,-0.94,-0.15,10.10
-0.16,-1.44,8.16,-0.85,-0.17,10.08
-0.02,-1.23,8.24,-0.83,-0.04,9.93
-0.30,-1.03,8.28,-0.73,0.12,9.93
-0.88,-0.37,8.39,-0.78,0.03,9.60
-0.96,0.08,8.49,-0.58,-0.09,9.64
-0.93,0.53,8.53,-0.75,-0.21,9.49
-0.74,0.84,8.47,-0.84,-0.21,9.35
-0.10,1.10,8.58,-0.64,-0.07,9.55
-0.11,1.10,8.66,-0.75,0.05,9.57
-0.42,1.04,8.63,-0.81,-0.06,9.67
-0.59,0.90,8.54,-0.85,-0.22,9.69
0.47,0.17,8.57,-0.96,-0.38,9.76
0.98,-0.38,8.67,-0.91,0.04,9.92
0.70,-0.76,8.69,-0.74,0.35,10.07
-0.38,-0.95,8.65,-0.73,0.26,10.02
-0.37,-0.91,8.69,-1.10,-0.46,9.63
0.53,-1.14,8.70,-1.11,-0.35,9.70
0.96,-1.21,8.74,-0.97,0.11,9.77
0.39,-1.08,8.79,-0.78,0.43,9.81
-1.17,-0.55,8.73,-1.05,-0.22,9.32
-0.56,-0.21,8.74,-0.92,-0.59,9.52
0.52,0.15,8.78,-0.93,-0.38,9.83
0.89,0.22,8.83,-1.11,0.19,10.12
-1.17,-0.31,8.83,-1.01,0.20,9.91
-1.44,-0.17,8.88,-0.72,-0.43,9.58
-0.28,0.42,8.91,-0.73,-0.74,9.31
0.96,0.90,8.91,-0.84,-0.43,9.47
0.18,0.84,8.86,-1.01,0.58,10.35
-1.06,0.40,8.89,-0.94,0.32,10.47
-1.39,-0.13,8.91,-1.00,-0.33,10.32
-0.56,-0.52,8.94,-1.07,-0.75,9.93
1.18,-0.70,8.93,-0.85,0.07,10.15
0.48,-0.75,8.93,-0.97,0.63,10.25
-0.84,-1.02,8.96,-0.88,0.60,10.40
-1.75,-1.25,8.97,-0.86,0.06,10.10
-0.54,-0.96,9.07,-0.86,-0.73,9.49
0.49,-0.69,9.03,-0.99,-0.39,9.47
0.50,-0.57,9.01,-0.94,0.23,9.66
-0.38,-0.58,9.00,-1.02,0.53,9.71
-1.61,-0.88,8.96,-0.98,-0.25,9.19
-0.99,-0.93,8.92,-0.92,-0.62,9.04
0.19,-0.67,8.99,-0.78,-0.51,9.20
0.87,-0.47,8.98,-0.98,-0.11,9.28
-0.28,-0.88,8.90,-0.96,0.35,9.74
-1.01,-1.00,8.87,-0.95,-0.06,9.62
-0.73,-0.91,8.88,-0.82,-0.62,9.57
0.55,-0.62,8.94,-0.77,-0.77,9.55
1.69,-0.14,8.94,-0.68,0.21,10.07
0.88,0.21,8.93,-0.86,0.50,10.13
-0.15,0.30,8.91,-0.85,0.22,10.16
-0.31,0.28,8.89,-0.80,-0.27,10.17
1.22,0.52,8.98,-0.66,-0.27,10.25
1.10,0.50,9.00,-0.81,0.30,10.25
0.13,0.27,8.92,-1.02,0.56,10.14
-0.92,0.02,8.88,-0.88,0.37,10.14
-0.94,-0.13,8.96,-0.79,-0.46,9.83
-0.33,-0.17,9.02,-0.83,-0.43,9.69
0.11,-0.27,9.05,-0.94,-0.06,9.69
-0.30,-0.50,9.04,-1.01,0.37,9.76
-1.80,-1.08,8.86,-1.13,0.03,9.60
-1.67,-1.34,8.86,-0.93,-0.37,9.42
-0.79,-1.31,8.94,-0.81,-0.55,9.31
-0.03,-1.16,9.03,-0.92,-0.41,9.13
0.25,-0.93,8.91,-0.89,0.23,9.34
-0.44,-0.60,8.89,-0.86,0.19,9.51
-0.74,-0.31,8.84,-1.09,-0.19,9.43
-0.13,-0.31,8.79,-0.99,-0.52,9.75
1.23,-0.36,8.95,-0.86,-0.10,10.17
0.84,-0.21,8.97,-0.87,0.14,10.23
0.31,-0.09,8.90,-1.17,0.10,10.03
0.01,-0.23,8.80,-1.10,-0.10,10.11
0.68,-0.43,8.83,-0.86,-0.09,10.29
0.39,-0.67,8.88,-0.79,0.10,10.24
-0.17,-0.92,8.91,-0.72,0.07,10.20
-0.31,-0.89,8.97,-0.80,-0.09,10.03
0.14,-0.86,8.94,-0.90,-0.03,9.98
-0.18,-0.94,8.93,-0.79,0.16,10.19
-0.68,-0.84,8.90,-0.78,0.15,10.21
-1.21,-0.88,8.90,-0.79,-0.12,10.16
-0.37,-1.19,8.98,-0.90,-0.26,9.65
-0.01,-1.17,8.98,-0.83,0.10,9.68
-0.56,-1.15,8.95,-0.88,0.31,9.54
-1.33,-1.25,8.86,-0.98,0.22,9.25
-0.85,-1.10,8.83,-0.70,-0.37,8.92
-0.23,-0.71,8.86,-0.61,-0.24,9.13
-0.19,-0.33,8.92,-0.76,0.06,9.36
-0.76,-0.10,8.84,-0.89,0.17,9.59
-1.02,-0.14,8.80,-1.11,-0.32,9.79
-0.36,-0.27,8.76,-0.90,-0.46,9.86
0.24,-0.16,8.78,-0.66,-0.32,9.92
0.41,0.20,8.76,-0.74,-0.11,9.67
0.15,0.64,8.78,-0.78,-0.15,9.66
0.56,0.64,8.74,-0.80,-0.18,9.61
1.00,0.79,8.76,-0.68,-0.12,9.82
0.84,0.90,8.65,-0.76,-0.08,9.80
0.62,0.49,8.57,-0.98,-0.20,9.85
0.99,0.10,8.57,-0.81,-0.17,10.05
1.20,-0.22,8.63,-0.82,0.06,10.10
0.93,-0.57,8.62,-1.06,0.25,9.92
-0.34,-1.24,8.54,-0.90,-0.05,10.04
-0.28,-1.36,8.51,-1.06,-0.34,9.90
0.20,-1.64,8.51,-0.93,-0.29,9.96
0.73,-1.83,8.56,-0.86,0.12,10.07
-1.11,-1.36,8.66,-0.66,0.48,10.26
-2.10,-0.82,8.65,-0.92,0.01,9.93
-2.03,-0.62,8.62,-1.03,-0.52,9.67
-0.93,-0.55,8.61,-0.91,-0.67,9.78
0.10,-0.08,8.57,-0.70,0.33,9.92
-0.93,-0.07,8.60,-0.74,0.52,9.90
-2.04,-0.10,8.49,-1.02,0.12,9.60
-1.91,-0.15,8.44,-0.85,-0.56,9.59
0.72,-0.44,8.34,-1.10,-0.62,9.64
1.20,-0.97,8.26,-1.01,0.04,9.90
0.49,-1.51,8.16,-0.82,0.41,10.06
-0.45,-1.84,8.17,-0.75,0.23,9.84
0.35,-1.92,8.14,-0.78,-0.73,9.34
1.42,-1.63,8.17,-0.65,-0.56,9.64
1.86,-1.39,8.14,-0.85,0.08,9.80
1.14,-1.38,8.06,-0.94,0.54,9.96
-0.54,-1.45,7.95,-0.72,-0.06,9.67
-0.04,-1.01,7.94,-0.83,-0.46,9.34
0.90,-0.65,7.95,-0.78,-0.37,9.33
1.24,-0.62,7.87,-0.79,0.04,9.53
-0.11,-0.55,7.71,-0.73,0.20,9.40
-0.24,-0.42,7.74,-0.59,-0.24,9.13
0.37,-0.08,7.66,-0.56,-0.52,9.02
1.17,0.42,7.59,-0.42,-0.39,9.25
0.91,0.90,7.49,-0.83,0.25,10.12
0.23,0.39,7.39,-1.01,0.19,10.40
0.02,-0.31,7.32,-0.79,-0.13,10.65
0.33,-0.77,7.30,-0.66,-0.41,10.52
1.20,-0.89,7.18,-0.65,-0.06,10.49
0.87,-1.07,7.15,-0.66,0.32,10.79
0.02,-1.27,7.08,-0.66,0.50,11.02
-0.88,-1.37,7.08,-0.74,0.34,10.92
-1.51,-1.58,7.03,-0.54,-0.52,10.24
-0.71,-1.34,7.02,-0.57,-0.61,9.91
0.15,-1.07,7.03,-0.48,-0.21,9.76
0.12,-0.93,7.01,-0.60,0.30,9.64
-1.70,-0.44,6.90,-0.45,0.17,9.11
-1.78,-0.03,6.80,-0.39,-0.41,8.80
-0.68,0.41,6.70,-0.47,-0.69,8.70
0.52,0.48,6.68,-0.61,-0.43,8.71
0.55,-0.06,6.42,-0.62,0.44,9.21
-0.49,-0.39,6.32,-0.63,0.25,9.15
-0.73,-0.42,6.18,-0.65,-0.31,9.19
-0.06,-0.46,6.09,-0.51,-0.66,9.36
1.99,-0.86,6.02,-0.65,0.07,10.10
1.06,-1.21,5.95,-0.78,0.53,10.35
-0.25,-1.37,5.75,-0.78,0.43,10.39
-0.79,-1.40,5.64,-0.53,-0.09,10.30
0.53,-0.97,5.62,-0.57,-0.20,10.29
0.32,-0.86,5.58,-0.48,0.23,10.74
-0.76,-0.84,5.45,-0.65,0.55,10.93
-2.05,-1.11,5.42,-0.69,0.37,10.71
-1.95,-1.19,5.29,-0.70,-0.43,9.86
-1.23,-0.98,5.23,-0.61,-0.30,9.63
-1.06,-0.79,5.09,-0.48,0.07,9.73
-1.73,-0.92,4.99,-0.56,0.28,9.52
-2.61,-1.10,4.83,-0.51,-0.26,9.28
-2.10,-1.19,4.71,-0.73,-0.62,8.96
-0.90,-1.30,4.57,-0.62,-0.61,9.01
-0.01,-1.44,4.49,-0.54,-0.22,9.20
-0.68,-1.67,4.32,-0.36,0.31,9.45
-1.30,-1.61,4.18,-0.23,-0.13,9.41
-1.01,-1.28,4.05,-0.23,-0.65,9.28
0.14,-0.71,3.99,-0.17,-0.81,9.54
1.23,-0.37,3.75,-0.69,0.27,10.43
0.19,-0.89,3.69,-0.40,0.54,10.96
-1.07,-1.38,3.61,-0.25,0.16,10.80
-1.34,-1.42,3.52,-0.20,-0.57,10.26
0.99,-0.64,3.37,-0.17,-0.67,9.85
1.51,-0.64,3.29,-0.48,0.17,9.96
0.66,-1.17,3.14,-0.52,0.76,10.18
-1.04,-1.87,3.02,-0.20,0.63,10.30
-1.81,-2.30,2.92,-0.29,-0.77,9.31
-0.25,-2.17,2.85,-0.18,-0.84,9.28
0.84,-2.19,2.75,-0.25,-0.28,9.44
0.55,-2.21,2.69,-0.31,0.42,9.83
-2.04,-2.34,2.41,-0.20,0.21,10.24
-2.50,-2.50,2.35,-0.19,-0.44,9.83
-1.76,-2.38,2.34,-0.05,-0.82,9.58
-0.39,-1.86,2.27,-0.01,-0.56,9.56
-1.17,-1.22,2.04,0.04,0.49,9.88
-2.47,-1.12,1.88,-0.07,0.30,9.65
-2.74,-1.07,1.79,-0.05,-0.35,9.30
-1.78,-0.87,1.68,0.22,-0.81,9.28
0.06,-0.18,1.51,-0.10,-0.18,9.49
-0.31,-0.40,1.32,-0.22,0.30,9.67
-1.12,-0.81,1.19,-0.20,0.28,9.76
-1.66,-1.14,1.00,-0.10,-0.21,9.62
-0.13,-0.95,0.79,0.03,-0.89,9.20
0.63,-0.94,0.62,-0.09,-0.64,9.13
1.08,-0.88,0.47,-0.04,-0.21,9.32
0.94,-0.81,0.34,0.09,0.14,9.54
-0.23,-0.92,0.09,0.10,-0.27,9.38
0.23,-0.73,-0.04,0.15,-0.71,9.32
1.40,-0.47,-0.13,-0.07,-0.77,9.10
2.41,-0.55,-0.21,-0.11,-0.35,9.38
1.39,-1.06,-0.46,0.04,0.63,10.18
-0.03,-1.26,-0.56,0.18,0.30,10.34
-0.54,-1.36,-0.63,0.04,-0.48,10.15
0.39,-1.51,-0.70,-0.18,-0.97,9.80
2.12,-1.48,-0.81,0.21,0.21,10.50
0.74,-1.54,-0.85,0.16,0.65,10.54
-0.90,-1.69,-0.86,0.22,0.35,10.58
-1.70,-1.68,-0.83,0.35,-0.28,10.29
-0.37,-1.09,-0.82,0.36,-0.49,10.21
0.09,-0.79,-0.82,0.14,0.00,10.22
-0.68,-1.01,-0.87,0.13,0.44,10.32
-1.93,-1.26,-0.86,0.39,0.39,10.41
-2.38,-1.28,-0.71,0.37,-0.58,9.73
-1.45,-1.18,-0.72,0.30,-0.70,9.64
-0.66,-1.16,-0.78,0.15,-0.36,9.61
-0.77,-1.36,-0.70,0.26,0.08,9.80
-1.91,-1.81,-0.71,0.18,-0.13,9.41
-1.81,-2.03,-0.70,0.29,-0.65,9.07
-0.68,-1.81,-0.69,0.31,-0.80,8.84
0.42,-1.60,-0.62,0.18,-0.54,8.77
0.71,-1.66,-0.68,0.24,0.22,9.05
0.14,-1.78,-0.58,0.47,0.19,9.15
-0.05,-1.55,-0.52,0.45,-0.08,9.03
0.23,-1.09,-0.43,0.32,-0.41,8.91
1.07,-0.24,-0.47,0.15,-0.01,9.50
0.47,-0.07,-0.51,0.13,0.24,10.02
-0.50,-0.20,-0.52,0.24,0.19,10.29
-0.81,-0.38,-0.43,0.19,-0.19,10.24
0.18,-0.34,-0.31,0.23,-0.54,9.98
0.58,-0.13,-0.33,0.20,-0.26,10.07
0.12,-0.13,-0.37,0.28,0.09,10.37
-0.49,-0.23,-0.42,0.11,0.16,10.39
-0.83,-0.99,-0.36,0.26,-0.43,10.35
-0.20,-1.20,-0.30,0.12,-0.52,10.13
0.09,-1.29,-0.33,0.25,-0.38,10.26
0.17,-1.29,-0.40,0.15,-0.14,10.34
-0.48,-1.76,-0.43,0.09,0.01,10.35
-0.66,-1.81,-0.44,0.23,-0.18,10.31
-0.62,-1.68,-0.44,0.30,-0.42,10.16
-0.36,-1.46,-0.43,0.21,-0.52,10.05
0.39,-1.40,-0.45,0.15,-0.18,9.87
0.39,-1.27,-0.40,0.28,0.04,9.81
-0.09,-0.98,-0.42,0.39,0.07,9.74
-0.72,-0.56,-0.51,0.46,-0.10,9.57
-0.23,0.23,-0.49,0.38,-0.49,9.34
0.46,0.41,-0.48,0.29,-0.20,9.44
0.36,0.21,-0.49,0.14,0.20,9.54
-0.52,-0.20,-0.57,0.27,0.27,9.67
-1.17,-0.78,-0.68,0.14,-0.57,9.12
-0.13,-1.07,-0.68,0.22,-0.79,9.05
1.09,-1.35,-0.65,0.23,-0.51,9.16
1.30,-1.64,-0.65,0.36,0.08,9.39
-0.49,-2.22,-0.67,-0.04,-0.04,9.21
-0.61,-2.39,-0.79,0.19,-0.66,9.16
0.76,-2.20,-0.79,0.38,-0.95,9.27
2.17,-1.93,-0.76,0.34,-0.51,9.36
1.07,-1.58,-0.74,0.18,0.64,10.05
-0.57,-1.54,-0.88,0.22,0.35,10.04
-0.91,-1.30,-0.86,0.21,-0.33,9.94
-0.03,-0.99,-0.91,0.22,-0.78,9.77
1.04,-0.55,-0.97,0.27,0.19,10.31
-0.05,-0.64,-1.13,0.10,0.59,10.19
-1.35,-0.94,-1.19,0.15,0.37,10.06
-1.80,-1.07,-1.28,0.28,-0.35,9.58
0.03,-0.53,-1.37,0.52,-0.78,9.38
0.65,-0.34,-1.55,0.26,-0.33,9.37
0.34,-0.52,-1.68,0.43,0.21,9.93
-0.42,-0.76,-1.72,0.26,0.25,10.07
-0.84,-1.33,-1.94,0.48,-0.62,10.22
0.12,-1.40,-2.05,0.29,-0.86,10.06
1.07,-1.46,-2.20,0.28,-0.52,10.16
1.33,-1.56,-2.21,0.36,0.05,10.50
-0.52,-1.90,-2.52,0.42,0.40,10.52
-1.22,-1.88,-2.62,0.34,-0.18,10.19
-0.95,-1.78,-2.81,0.43,-0.73,9.93
0.04,-1.64,-2.84,0.55,-0.77,10.04
0.57,-1.54,-2.96,0.38,0.41,10.25
-0.70,-1.81,-3.00,0.53,0.50,10.34
-2.03,-1.75,-3.25,0.59,-0.01,10.10
-2.05,-1.38,-3.27,0.67,-0.71,9.76
0.64,-0.82,-3.38,0.62,-0.52,9.66
0.75,-0.82,-3.40,0.70,0.20,9.96
-0.53,-0.77,-3.57,0.77,0.48,9.96
-1.83,-0.74,-3.64,0.72,0.05,9.58
-0.45,-0.41,-3.84,0.94,-0.97,8.98
0.92,-0.07,-3.88,1.04,-0.65,9.14
1.46,0.25,-3.99,0.84,-0.11,9.28
0.78,0.14,-4.09,0.63,0.27,9.37
-0.48,-0.34,-4.38,0.74,-0.37,9.59
0.21,-0.40,-4.43,0.77,-0.70,9.61
1.22,-0.57,-4.48,0.83,-0.62,9.89
1.56,-0.79,-4.56,0.67,-0.11,10.11
0.02,-1.20,-4.79,0.58,0.35,10.27
-0.86,-1.22,-4.93,0.82,0.06,10.26
-1.11,-1.01,-5.03,0.70,-0.38,9.96
-0.66,-0.83,-5.08,0.68,-0.59,9.74
0.35,-0.70,-5.27,0.65,-0.04,9.63
-0.16,-0.58,-5.34,0.73,0.18,9.65
-0.83,-0.36,-5.48,0.75,0.09,9.49
-1.22,-0.31,-5.58,0.66,-0.33,9.09
0.46,0.14,-5.72,0.95,-0.72,9.12
1.21,0.22,-5.76,0.68,-0.30,9.09
1.16,0.11,-5.82,0.64,0.07,9.32
0.37,-0.12,-6.05,0.71,0.10,9.41
0.41,-0.30,-6.17,0.82,-0.72,9.37
1.48,-0.43,-6.29,0.92,-0.71,9.54
2.31,-0.38,-6.21,0.89,-0.17,9.91
1.89,-0.36,-6.25,0.88,0.28,10.25
-0.15,-0.23,-6.36,0.81,-0.04,10.62
-0.27,-0.39,-6.51,0.85,-0.49,10.57
0.44,-0.38,-6.53,1.03,-0.45,10.77
0.95,-0.32,-6.46,0.96,-0.11,10.74
-0.75,-0.32,-6.45,1.13,0.29,10.83
-1.65,-0.29,-6.49,0.91,-0.06,10.30
-1.47,-0.22,-6.50,0.88,-0.44,9.98
-0.69,-0.17,-6.56,0.95,-0.55,9.84
-0.55,-0.20,-6.66,0.94,0.14,9.91
-1.41,-0.51,-6.76,0.98,0.15,9.79
-1.95,-0.72,-6.82,1.01,-0.16,9.60
-1.62,-0.74,-6.80,0.94,-0.62,9.30
0.19,-0.51,-6.88,0.98,-0.38,9.43
0.09,-0.54,-6.95,0.89,0.04,9.47
-0.61,-0.56,-7.05,0.89,0.23,9.55
-1.13,-0.63,-7.12,0.88,-0.09,9.26
-0.08,-0.19,-7.12,1.21,-0.60,9.13
0.57,0.31,-7.15,1.20,-0.34,9.22
0.54,0.79,-7.23,1.05,0.10,9.58
-0.09,0.94,-7.29,0.86,0.30,9.74
-1.10,0.60,-7.44,0.75,-0.24,9.98
-0.81,0.41,-7.53,0.89,-0.56,9.97
-0.21,0.28,-7.60,1.02,-0.45,10.20
0.03,0.04,-7.55,0.77,-0.20,10.08
-0.64,-0.70,-7.70,0.93,0.02,10.01
-0.88,-0.78,-7.76,1.06,-0.21,9.73
-0.82,-0.55,-7.85,1.24,-0.39,9.71
-0.39,-0.10,-7.79,1.13,-0.44,9.68
0.00,0.20,-7.78,1.21,-0.15,9.91
-0.01,0.51,-7.76,1.10,-0.06,10.02
-0.51,0.72,-7.88,1.06,-0.02,10.03
-0.71,0.78,-7.85,1.15,-0.11,10.16
-0.72,0.84,-7.90,1.07,-0.36,10.10
-0.47,0.79,-7.81,1.13,-0.34,10.01
-0.27,0.74,-7.86,1.22,-0.18,10.06
-0.40,0.72,-7.80,1.04,0.02,9.96
-1.31,0.69,-7.88,1.22,-0.13,9.99
-1.30,0.52,-7.87,1.01,-0.37,9.74
-0.86,0.30,-7.94,1.08,-0.44,9.70
-0.36,0.15,-7.82,1.29,-0.27,9.83
-0.71,0.03,-7.82,1.00,0.11,9.45
-1.26,0.05,-7.79,1.15,-0.07,9.40
-1.33,0.28,-7.91,1.18,-0.31,9.30
-0.91,0.56,-7.88,1.21,-0.42,9.32
-0.37,0.77,-7.88,1.04,-0.14,9.67
-0.73,0.58,-7.89,0.82,-0.09,9.59
-0.85,0.31,-7.97,0.95,-0.21,9.67
-0.49,0.18,-7.95,1.07,-0.33,9.63
0.03,0.35,-7.98,1.17,-0.17,9.54
-0.19,0.56,-8.04,1.10,-0.10,9.41
-0.51,0.71,-8.16,1.02,-0.13,9.43
-0.54,0.77,-8.13,0.99,-0.25,9.68
0.04,0.13,-8.26,0.68,-0.16,9.90
0.01,-0.41,-8.26,0.75,-0.01,10.09
-0.55,-0.77,-8.38,0.71,0.03,10.12
-1.10,-1.09,-8.36,0.72,-0.19,9.99
-0.18,-1.30,-8.41,1.06,-0.56,9.77
0.53,-1.01,-8.32,1.07,-0.30,9.68
0.52,-0.56,-8.33,0.96,0.09,9.71
-0.10,-0.14,-8.40,1.07,0.29,9.77
-1.11,0.83,-8.48,1.16,-0.42,9.79
-0.56,1.21,-8.50,1.09,-0.73,9.57
0.52,1.45,-8.51,1.16,-0.61,9.76
0.95,1.58,-8.50,1.11,-0.16,10.03
-0.43,1.18,-8.70,0.88,0.25,10.10
-0.89,0.70,-8.79,1.09,-0.04,10.01
-0.87,0.40,-8.75,1.33,-0.38,10.01
-0.52,0.37,-8.69,1.33,-0.58,10.08
-0.15,-0.36,-8.73,0.85,-0.07,10.15
-0.41,-0.99,-8.82,0.88,0.11,10.21
-0.89,-1.47,-8.86,1.07,0.10,10.21
-1.14,-1.65,-8.78,1.21,-0.15,9.91
-0.51,-1.05,-8.72,1.34,-0.52,9.31
0.03,-0.51,-8.69,1.16,-0.36,9.10
0.27,-0.05,-8.78,1.25,0.07,9.43
-0.10,0.28,-8.75,1.23,0.33,9.63
-1.29,0.65,-8.74,1.24,-0.27,9.53
-0.65,0.84,-8.67,1.23,-0.75,9.33
0.49,1.10,-8.75,1.25,-0.71,9.41
1.24,1.39,-8.76,1.14,-0.17,9.66
-0.37,0.85,-8.93,1.01,0.33,10.06
-1.02,0.36,-8.95,1.07,-0.14,9.97
-0.85,0.01,-8.95,1.26,-0.67,9.89
0.29,-0.18,-8.89,1.09,-0.77,9.66
1.27,-0.69,-8.88,1.12,0.22,9.85
0.27,-0.69,-8.93,1.18,0.46,9.90
-0.75,-0.61,-8.98,1.20,0.27,9.84
-0.95,-0.50,-8.95,1.10,-0.18,9.76
0.35,-0.39,-8.87,1.21,-0.45,9.82
0.82,-0.20,-8.76,1.14,-0.13,9.79
0.45,-0.03,-8.81,1.00,0.17,9.66
-0.27,0.17,-8.87,1.07,0.20,9.54
-0.40,0.66,-8.94,1.06,-0.55,9.07
0.58,0.77,-8.90,1.08,-0.63,9.07
1.29,0.70,-8.91,1.16,-0.36,9.38
1.26,0.63,-8.90,1.12,0.05,9.82
0.04,0.24,-9.01,0.86,-0.04,10.10
0.16,0.09,-9.06,0.89,-0.32,10.16
0.71,-0.04,-9.08,1.06,-0.41,10.37
1.16,-0.12,-9.05,1.03,-0.17,10.51
0.32,-0.48,-9.06,1.21,0.13,10.37
-0.11,-0.47,-9.04,1.19,-0.14,10.03
-0.02,-0.18,-9.12,1.35,-0.44,9.85
0.57,0.19,-9.11,1.29,-0.45,9.84
0.68,0.16,-9.16,1.03,0.12,10.14
-0.11,-0.18,-9.19,1.14,0.07,10.26
-0.45,-0.33,-9.28,1.21,-0.25,9.96
0.11,-0.51,-9.15,1.12,-0.51,9.50
1.47,-0.36,-9.35,1.32,0.00,9.38
0.84,0.05,-9.29,1.42,0.37,9.56
-0.44,0.42,-9.46,1.32,0.24,9.54
-1.03,0.48,-9.48,1.20,-0.21,9.54
0.95,0.17,-9.52,1.18,-0.54,9.68
1.46,0.18,-9.48,1.15,-0.04,9.92
0.69,0.10,-9.57,1.04,0.27,9.83
-0.45,-0.01,-9.74,1.17,0.10,9.84
0.21,0.47,-9.80,1.64,-0.64,9.72
1.29,0.88,-9.71,1.38,-0.27,9.80
1.13,0.85,-9.78,1.01,0.31,9.93
0.02,0.56,-10.01,0.97,0.51,10.28
-1.61,-0.25,-10.25,0.95,-0.40,10.04
-0.60,-0.75,-10.27,1.02,-0.71,9.91
0.50,-1.15,-10.21,1.17,-0.49,9.87
0.72,-1.33,-10.22,1.16,0.10,9.90
-1.35,-1.16,-10.40,1.13,0.15,9.72
-1.52,-1.10,-10.45,1.04,-0.44,9.42
-0.59,-0.94,-10.47,1.25,-0.78,9.51
0.66,-0.62,-10.41,1.32,-0.53,9.79
0.59,-0.31,-10.47,1.32,0.11,9.95
0.05,-0.04,-10.48,1.25,0.05,9.69
-0.00,0.20,-10.52,1.12,-0.34,9.25
0.71,0.56,-10.59,1.40,-0.48,9.39
1.19,1.36,-10.63,1.46,0.21,9.92
0.28,1.33,-10.63,1.36,0.37,10.21
-0.48,1.03,-10.68,1.13,0.16,10.08
-0.67,0.59,-10.72,1.27,-0.20,10.10
0.38,0.40,-10.65,1.49,-0.22,10.08
0.18,0.33,-10.63,1.54,0.12,10.21
-0.64,0.23,-10.65,1.51,0.22,10.23
-1.34,0.12,-10.62,1.51,-0.05,10.11
-0.46,0.04,-10.57,1.35,-0.49,9.96
-0.10,-0.10,-10.55,1.42,-0.29,10.14
-0.07,-0.13,-10.55,1.34,0.03,10.19
-0.65,-0.31,-10.44,1.35,0.07,10.03
-0.60,-0.24,-10.48,1.46,-0.40,9.45
0.08,0.26,-10.42,1.52,-0.40,9.38
0.44,0.68,-10.48,1.40,-0.06,9.48
0.10,0.87,-10.48,1.39,0.22,9.78
-0.90,0.75,-10.51,1.22,-0.09,9.71
-0.60,0.58,-10.44,1.22,-0.44,9.64
-0.06,0.40,-10.53,1.10,-0.49,9.48
0.44,0.38,-10.59,1.26,-0.24,9.67
-0.37,0.15,-10.67,1.01,0.28,9.73
-0.96,-0.19,-10.63,1.18,0.11,9.85
-1.10,-0.37,-10.62,1.37,-0.20,9.96
-0.88,-0.33,-10.61,1.29,-0.38,9.84
-0.24,-0.20,-10.65,0.98,-0.11,9.84
-0.31,-0.52,-10.69,0.86,0.24,9.64
-0.63,-0.77,-10.68,1.16,0.33,9.66
-1.04,-0.86,-10.68,1.27,0.10,9.24
-0.61,0.05,-10.56,1.66,-0.62,8.78
0.16,0.81,-10.61,1.45,-0.56,8.61
0.77,1.42,-10.66,1.33,-0.17,9.02
0.64,1.66,-10.65,1.28,0.22,9.52
-0.85,1.46,-10.69,1.28,-0.03,10.35
-0.79,1.13,-10.63,1.19,-0.63,10.26
0.20,0.78,-10.63,1.16,-0.87,10.25
1.45,0.67,-10.66,1.25,-0.51,10.35
0.84,0.44,-10.71,1.34,0.55,10.70
-0.59,0.22,-10.76,1.45,0.36,10.82
-1.42,-0.06,-10.75,1.29,-0.12,10.52
-0.80,-0.33,-10.68,1.19,-0.56,10.32
1.35,-1.35,-10.65,1.03,-0.07,9.89
0.94,-1.46,-10.68,1.54,0.45,10.18
-0.40,-1.28,-10.68,1.41,0.53,9.87
-1.31,-1.18,-10.70,1.15,0.01,9.29
0.48,-0.67,-10.66,1.40,-0.57,9.42
1.15,-0.21,-10.68,1.29,-0.08,9.59
0.63,-0.05,-10.60,1.19,0.34,9.93
-0.59,-0.16,-10.71,1.10,0.24,9.83
-0.47,0.11,-10.67,1.52,-0.60,9.42
0.60,0.52,-10.78,1.47,-0.55,9.22
1.13,0.89,-10.77,1.45,0.01,9.40
0.52,1.17,-10.74,1.60,0.41,9.70
-1.04,1.24,-10.75,1.24,0.10,9.57
-0.73,0.89,-10.86,1.20,-0.35,9.44
0.01,0.60,-10.93,1.43,-0.43,9.63
0.47,0.50,-10.87,1.47,-0.29,9.71
0.19,-0.01,-10.95,1.22,0.13,9.73
-0.02,-0.56,-11.00,1.23,-0.03,9.64
0.00,-0.83,-11.09,1.36,-0.22,9.65
0.33,-0.75,-11.06,1.39,-0.43,9.53
1.09,-0.50,-11.17,1.24,-0.24,9.65
1.29,-0.47,-11.19,1.23,0.00,9.74
1.29,-0.52,-11.17,1.31,0.19,9.79
0.98,-0.49,-11.12,1.49,0.06,9.70
1.29,0.78,-11.12,1.49,-0.31,9.39
1.92,1.51,-11.18,1.39,-0.10,9.58
1.87,1.74,-11.26,1.24,0.32,9.97
0.97,1.46,-11.31,1.08,0.49,10.16
-0.33,1.07,-11.29,1.53,-0.38,10.41
0.36,0.95,-11.28,1.20,-0.73,9.90
1.51,0.78,-11.30,1.30,-0.48,9.97
1.87,0.58,-11.28,1.28,0.15,10.03
-0.37,0.38,-11.40,1.63,0.52,10.26
-1.19,0.39,-11.41,1.59,-0.06,9.92
-0.70,0.42,-11.32,1.51,-0.56,9.69
0.51,0.49,-11.27,1.46,-0.56,9.76
0.85,0.33,-11.26,1.20,0.54,10.13
-0.53,-0.06,-11.31,1.30,0.49,10.19
-1.36,-0.18,-11.36,1.40,-0.08,10.06
-0.87,-0.09,-11.37,1.41,-0.67,9.71
1.39,-0.04,-11.32,1.14,-0.33,9.78
1.28,-0.25,-11.34,1.20,0.35,10.04
0.26,-0.52,-11.36,1.18,0.61,10.22
-0.82,-0.70,-11.43,1.21,0.27,9.97
-0.32,-0.54,-11.45,1.28,-0.54,9.43
0.60,-0.29,-11.45,1.38,-0.40,9.46
0.86,-0.19,-11.41,1.39,0.08,9.61
0.40,-0.10,-11.41,1.26,0.44,9.59
-0.83,-0.07,-11.48,1.47,-0.14,9.50
-0.34,0.14,-11.47,1.34,-0.57,9.32
0.68,0.33,-11.45,1.34,-0.65,9.38
1.54,0.39,-11.46,1.39,-0.28,9.78
0.73,-0.09,-11.46,1.13,0.32,10.15
0.13,-0.53,-11.50,1.16,0.00,10.04
0.44,-0.82,-11.51,1.28,-0.48,9.78
1.40,-0.84,-11.52,1.50,-0.62,9.76
2.12,-0.23,-11.49,1.41,0.36,10.06
1.02,-0.26,-11.47,1.40,0.58,10.30
-0.01,-0.23,-11.45,1.41,0.29,10.44
-0.37,-0.10,-11.46,1.46,-0.29,10.33
1.39,0.38,-11.40,1.40,-0.37,10.27
1.61,0.52,-11.42,1.30,0.14,10.26
0.84,0.56,-11.41,1.54,0.52,10.42
-0.49,0.72,-11.39,1.74,0.37,10.36
-0.88,1.35,-11.37,1.48,-0.56,9.66
0.28,1.27,-11.42,1.29,-0.55,9.42
1.07,0.97,-11.43,1.45,-0.05,9.58
0.65,0.82,-11.38,1.53,0.44,9.66
-1.45,0.29,-11.42,1.64,-0.03,9.16
-1.02,0.30,-11.48,1.62,-0.62,8.90
0.39,0.49,-11.44,1.42,-0.64,8.72
1.45,0.52,-11.38,1.51,-0.14,9.14
-0.22,-0.10,-11.38,1.22,0.62,9.71
-1.22,-0.45,-11.43,1.35,0.04,9.71
-0.65,-0.49,-11.44,1.32,-0.65,9.50
0.70,-0.51,-11.44,1.19,-0.81,9.39
1.63,-0.19,-11.38,1.45,0.46,10.19
0.30,-0.15,-11.39,1.26,0.67,10.24
-0.85,0.00,-11.40,1.34,0.32,10.22
-1.20,0.12,-11.41,1.40,-0.26,9.96
0.54,0.76,-11.37,1.26,-0.18,9.89
0.42,0.67,-11.37,1.12,0.33,9.94
-0.50,0.23,-11.41,1.17,0.54,9.98
-1.34,-0.11,-11.40,1.39,0.28,9.91
-0.89,-0.21,-11.37,1.18,-0.35,9.27
-0.29,-0.32,-11.40,1.27,-0.21,9.55
-0.47,-0.35,-11.48,1.35,0.20,10.01
-1.33,-0.39,-11.45,1.23,0.36,10.20
-1.92,-1.11,-11.46,1.12,-0.28,10.08
-1.17,-1.27,-11.36,1.28,-0.48,10.07
-0.53,-1.03,-11.38,1.47,-0.27,10.17
-0.41,-0.60,-11.37,1.38,0.13,10.15
-1.68,-0.51,-11.49,1.30,0.20,10.01
-1.67,-0.38,-11.41,1.51,-0.24,10.04
-1.10,-0.12,-11.39,1.49,-0.49,9.99
-0.35,0.17,-11.34,1.33,-0.37,10.00
-0.16,-0.10,-11.45,1.14,0.17,10.17
-0.55,-0.34,-11.47,1.29,0.21,10.18
-1.09,-0.45,-11.51,1.65,-0.03,10.16
-1.19,-0.24,-11.48,1.67,-0.35,9.93
-0.14,0.46,-11.36,1.55,-0.31,9.86
0.11,0.52,-11.40,1.28,0.14,9.85
-0.43,0.35,-11.43,1.38,0.42,10.12
-1.34,0.21,-11.47,1.56,0.36,10.17
-1.75,0.09,-11.40,1.64,-0.59,9.59
-0.48,0.04,-11.32,1.44,-0.69,9.22
0.62,-0.07,-11.28,1.36,-0.22,9.22
0.69,-0.08,-11.31,1.53,0.49,9.55
-2.20,-0.30,-11.32,1.53,0.28,9.37
-2.27,-0.27,-11.31,1.62,-0.50,9.16
-1.12,-0.11,-11.22,1.55,-0.88,8.92
0.24,0.22,-11.20,1.48,-0.59,9.10
0.20,0.36,-11.16,1.27,0.65,9.67
-1.24,-0.01,-11.21,1.33,0.55,9.72
-1.89,-0.02,-11.24,1.50,-0.14,9.52
-1.26,0.21,-11.23,1.44,-0.80,9.06
1.50,0.67,-11.21,1.30,-0.29,9.38
1.40,0.52,-11.25,1.21,0.40,9.69
0.36,0.28,-11.28,1.32,0.66,10.08
-0.72,0.01,-11.26,1.27,0.15,9.95
0.73,-0.23,-11.29,1.19,-0.97,9.46
2.34,-0.16,-11.29,1.23,-0.62,9.59
2.80,-0.20,-11.31,1.24,0.23,9.91
2.09,-0.30,-11.26,1.14,0.73,10.16
-0.43,-0.89,-11.43,1.20,-0.10,9.67
0.48,-0.88,-11.35,1.27,-0.65,9.34
1.98,-0.69,-11.37,1.36,-0.56,9.41
2.65,-0.45,-11.31,1.33,0.12,9.63
0.21,-0.41,-11.34,1.29,0.67,9.88
-0.44,-0.41,-11.30,1.26,-0.02,9.59
0.13,-0.25,-11.28,1.43,-0.56,9.57
1.30,0.17,-11.23,1.63,-0.38,9.73
0.68,0.72,-11.16,1.45,0.70,10.42
-0.94,0.67,-11.13,1.43,0.67,10.55
-1.80,0.74,-11.10,1.49,0.26,10.58
-1.79,0.95,-11.02,1.62,-0.17,10.40
-1.41,1.45,-10.90,1.55,-0.00,10.35
-1.97,1.41,-10.92,1.44,0.24,10.23
-2.52,1.09,-10.87,1.49,0.20,10.12
-2.65,0.73,-10.79,1.39,-0.07,9.80
-1.73,0.31,-10.65,1.58,-0.31,9.65
-1.39,0.28,-10.61,1.38,-0.24,9.53
-1.40,0.02,-10.60,1.38,-0.14,9.56
-1.24,-0.28,-10.49,1.26,-0.14,9.57
-0.55,-0.61,-10.37,1.41,-0.20,9.65
-0.15,-0.52,-10.28,1.41,-0.18,9.69
-0.27,-0.44,-10.29,1.29,-0.16,9.66
-0.20,-0.38,-10.28,1.17,-0.20,9.65
0.79,-0.67,-10.21,1.10,-0.02,9.61
0.87,-0.65,-10.12,1.31,0.15,9.69
0.44,-0.43,-10.04,1.36,0.13,9.51
0.27,-0.04,-9.97,1.40,-0.12,9.33
1.49,0.73,-9.91,1.30,-0.23,9.24
2.03,1.18,-9.86,1.31,0.27,9.65
1.33,1.33,-9.79,1.16,0.62,9.94
-0.17,1.20,-9.84,1.26,0.50,10.24
-0.72,1.11,-9.69,1.22,-0.66,10.18
0.46,0.97,-9.59,1.09,-0.69,10.21
1.30,0.68,-9.53,1.04,-0.10,10.49
0.80,0.32,-9.53,1.05,0.57,10.73
-1.86,-0.04,-9.45,1.45,0.28,10.79
-2.24,-0.03,-9.36,1.29,-0.24,10.26
-1.46,0.12,-9.23,1.33,-0.45,10.04
-0.56,0.39,-9.10,1.35,-0.18,10.17
-1.87,0.50,-9.07,1.14,0.78,10.09
-3.23,0.37,-9.01,1.33,0.46,9.93
-3.72,0.49,-9.04,1.38,-0.24,9.42
-3.23,0.85,-8.92,1.47,-0.64,9.02
-1.10,2.08,-8.85,1.37,-0.29,8.95
-1.08,2.31,-8.79,1.31,0.17,9.17
-1.67,2.30,-8.74,1.30,0.34,9.39
-2.23,2.16,-8.81,1.20,0.09,9.29
-0.93,2.00,-8.72,1.26,-0.62,8.84
0.23,2.00,-8.64,1.27,-0.41,8.75
0.83,1.97,-8.55,1.27,-0.04,8.81
0.68,1.87,-8.54,1.35,0.22,8.79
0.35,2.15,-8.44,1.39,-0.25,8.69
1.04,2.49,-8.42,1.33,-0.43,8.66
2.01,2.66,-8.32,1.24,-0.29,8.91
2.38,2.71,-8.20,1.32,0.04,9.52
1.06,2.88,-8.02,1.29,0.30,10.40
0.45,2.76,-7.94,1.03,0.04,10.55
0.56,2.42,-7.98,0.80,-0.13,10.71
0.90,2.00,-7.96,0.76,0.02,11.03
-0.48,1.20,-7.85,0.98,0.57,11.38
-1.62,0.80,-7.71,0.92,0.38,11.07
-2.34,0.58,-7.64,0.95,-0.05,10.71
-2.03,0.69,-7.53,0.94,-0.26,10.49
-1.63,0.68,-7.48,0.43,0.17,10.33
-2.25,0.40,-7.46,0.68,0.34,10.53
-3.08,0.20,-7.33,0.77,0.12,10.41
-3.17,0.10,-7.26,0.65,-0.35,9.90
-1.18,0.27,-7.07,0.57,-0.49,9.48
-0.65,0.43,-7.06,0.51,0.09,9.58
-1.19,0.40,-7.01,0.55,0.49,9.89
-2.23,0.16,-7.03,0.51,0.36,9.78
-1.83,0.03,-6.82,0.79,-0.75,9.37
-0.48,0.31,-6.73,0.69,-0.70,9.16
0.33,0.45,-6.64,0.77,-0.21,9.44
0.39,0.65,-6.59,0.77,0.39,9.73
-1.72,0.81,-6.42,1.03,0.20,10.07
-1.84,0.85,-6.29,0.97,-0.47,9.66
-0.65,0.90,-6.15,1.00,-0.84,9.36
1.14,1.20,-5.98,1.04,-0.47,9.32
0.33,1.43,-5.74,1.17,0.87,9.29
-1.27,1.61,-5.61,1.31,0.65,9.01
-2.05,1.95,-5.50,1.40,-0.18,8.51
-1.30,2.51,-5.34,1.54,-0.76,8.36
1.43,3.58,-4.95,1.25,-0.07,8.80
0.93,3.70,-4.81,1.22,0.56,9.48
-0.47,3.51,-4.71,0.78,0.62,9.50
-1.36,2.92,-4.62,0.83,0.06,9.52
0.33,2.56,-4.31,1.02,-0.70,9.62
1.23,2.47,-4.07,0.94,-0.23,9.83
1.01,2.33,-3.90,0.91,0.32,10.23
-0.13,2.14,-3.85,0.82,0.52,10.36
-0.91,2.18,-3.60,0.53,-0.30,10.28
-0.22,2.01,-3.50,0.39,-0.47,10.30
0.41,1.81,-3.36,0.48,-0.23,10.54
0.34,1.79,-3.16,0.69,0.10,10.75
-0.90,2.10,-2.83,0.49,0.12,10.14
-0.83,2.22,-2.71,0.44,-0.24,9.58
0.06,2.71,-2.55,0.42,-0.38,9.22
0.70,3.41,-2.35,0.63,-0.22,9.23
0.20,4.32,-2.10,0.61,0.19,9.44
-0.08,4.32,-1.92,0.35,-0.01,9.42
0.03,4.22,-1.79,0.25,-0.20,9.52
0.50,4.08,-1.63,0.31,-0.26,9.75
0.92,3.60,-1.32,0.09,0.17,10.07
0.30,3.01,-1.17,0.21,0.21,10.13
-0.07,2.58,-1.03,0.22,0.09,9.95
0.16,2.47,-0.80,0.29,-0.06,9.74
0.22,2.63,-0.53,0.17,0.16,9.92
-0.17,2.46,-0.38,-0.09,0.27,9.92
-0.69,2.02,-0.22,-0.11,0.23,10.05
-0.96,1.58,-0.03,0.00,0.01,9.96
-0.40,1.58,0.34,0.14,-0.16,9.66
-0.30,1.80,0.47,-0.02,0.08,9.54
-0.81,1.91,0.56,-0.06,0.33,9.78
-1.55,1.85,0.64,-0.20,0.33,9.85
-1.82,1.43,0.96,0.01,-0.34,9.95
-1.19,1.46,1.12,0.08,-0.40,9.92
-0.69,1.64,1.32,-0.12,-0.17,9.72
-0.71,1.64,1.37,-0.28,0.14,9.57
-1.54,1.61,1.34,-0.17,0.21,9.37
-1.84,1.72,1.38,0.06,-0.12,9.51
-1.61,1.99,1.43,0.14,-0.39,9.59
-1.09,2.07,1.54,-0.07,-0.49,9.56
0.23,1.42,1.63,-0.47,0.10,9.79
-0.08,0.92,1.61,-0.44,0.46,10.04
-1.13,0.46,1.56,-0.26,0.48,10.11
-2.00,0.24,1.50,-0.15,0.01,10.00
-0.55,-0.14,1.52,-0.24,-0.75,9.45
0.72,-0.20,1.59,-0.14,-0.27,9.77
0.87,-0.17,1.66,-0.24,0.53,10.04
-0.49,-0.19,1.67,-0.17,0.87,10.46
-2.86,-0.29,1.62,-0.34,-0.30,9.99
-1.86,-0.12,1.72,-0.12,-0.79,9.77
-0.33,0.33,1.79,-0.07,-0.60,9.70
0.20,0.71,1.78,-0.09,0.14,9.73
-2.34,1.29,1.80,0.11,0.59,9.90
-3.10,1.66,1.83,0.15,-0.11,9.59
-2.26,2.18,1.87,0.18,-0.81,9.49
-0.87,2.58,1.83,0.15,-0.84,9.57
-0.07,2.80,1.83,-0.10,0.39,10.07
-1.28,2.24,1.78,-0.15,0.54,9.99
-2.02,1.84,1.71,0.14,0.09,9.86
-1.98,1.75,1.70,0.32,-0.52,9.59
0.20,2.11,1.74,0.20,-0.45,9.44
0.44,1.93,1.75,0.07,0.19,9.74
-0.42,1.66,1.75,-0.06,0.59,9.96
-1.51,1.38,1.72,-0.10,0.38,10.03
-1.12,0.90,1.73,0.06,-0.73,9.56
0.37,1.16,1.80,0.19,-0.56,9.56
1.00,1.44,1.82,-0.00,0.14,9.64
0.10,1.52,1.81,-0.14,0.73,9.79
-2.48,1.11,1.73,-0.26,-0.15,9.41
-1.84,1.16,1.78,-0.19,-0.74,9.25
-0.14,1.27,1.82,-0.26,-0.68,9.23
0.81,1.09,1.86,-0.30,-0.15,9.41
-0.58,0.82,1.87,-0.21,0.54,9.79
-1.55,0.90,1.88,-0.13,0.05,9.62
-1.19,1.21,1.95,-0.06,-0.54,9.38
0.05,1.59,1.93,-0.15,-0.61,9.24
0.54,1.89,1.97,-0.22,0.34,9.66
-0.53,1.70,1.92,-0.25,0.34,9.74
-1.09,1.54,1.97,-0.14,-0.08,9.72
-0.65,1.50,1.97,-0.06,-0.55,9.66
1.34,1.30,2.16,-0.50,-0.13,9.61
1.09,0.82,2.03,-0.46,0.30,9.77
0.24,0.42,2.04,-0.35,0.46,9.90
-0.64,0.11,2.10,-0.30,0.11,9.79
0.33,-0.11,2.25,-0.21,-0.72,9.63
1.50,-0.04,2.32,-0.22,-0.46,9.81
1.88,0.08,2.48,-0.40,0.24,10.08
1.13,0.05,2.53,-0.62,0.59,10.18
-0.53,-0.32,2.47,-0.35,-0.26,9.87
0.42,0.07,2.55,-0.22,-0.61,9.69
1.36,0.52,2.65,-0.20,-0.36,9.80
1.44,0.71,2.75,-0.47,0.15,9.94
-0.41,0.50,2.88,-0.35,0.33,10.41
-1.15,0.38,2.89,-0.51,-0.33,10.11
-0.37,0.31,2.90,-0.30,-0.77,10.07
1.02,0.29,3.08,-0.28,-0.58,10.11
0.81,-0.18,3.37,-0.16,0.60,10.23
-0.58,-0.33,3.50,-0.32,0.45,9.95
-1.24,-0.17,3.50,-0.03,-0.15,9.73
-0.72,0.23,3.69,0.12,-0.65,9.70
1.44,0.39,3.93,-0.36,-0.03,9.70
1.03,0.18,4.05,-0.14,0.56,10.25
-0.38,0.20,4.10,-0.30,0.63,10.13
-1.48,0.11,4.27,-0.28,0.05,9.86
0.07,0.14,4.55,-0.23,-0.79,9.23
1.21,0.35,4.74,-0.06,-0.42,9.28
1.60,0.79,4.84,-0.17,0.23,9.40
0.67,0.90,4.86,-0.38,0.57,9.49
-0.74,0.81,4.98,-0.29,-0.42,9.42
0.36,0.84,5.13,-0.36,-0.73,9.49
1.67,0.71,5.26,-0.54,-0.42,9.62
1.90,0.33,5.35,-0.59,0.18,9.98
0.03,-0.34,5.37,-0.65,0.29,9.77
-0.24,-0.33,5.40,-0.49,-0.27,9.54
0.57,-0.16,5.49,-0.41,-0.61,9.37
1.72,0.18,5.59,-0.36,-0.39,9.60
0.71,0.63,5.74,-0.65,0.61,10.26
-0.75,0.42,5.77,-0.77,0.33,10.24
-1.03,0.29,5.81,-0.73,-0.31,10.13
-0.15,0.31,5.86,-0.68,-0.66,9.88
1.14,0.45,5.91,-0.78,0.19,9.93
0.23,0.34,5.90,-0.80,0.55,10.05
-0.96,0.10,5.92,-0.69,0.30,10.17
-1.27,-0.04,5.92,-0.63,-0.32,10.10
0.76,-0.14,6.17,-0.54,-0.49,10.19
1.06,0.04,6.13,-0.57,0.10,10.38
0.23,0.22,6.12,-0.67,0.57,10.47
-1.19,0.28,6.06,-0.66,0.46,10.42
-1.35,0.19,6.11,-0.57,-0.56,9.75
-0.30,0.15,6.14,-0.37,-0.64,9.57
0.58,0.33,6.25,-0.51,-0.17,9.47
0.32,0.41,6.26,-0.53,0.34,9.49
-1.59,0.54,6.15,-0.63,0.17,9.48
-1.55,0.57,6.15,-0.56,-0.34,9.45
-0.62,0.56,6.25,-0.57,-0.58,9.69
0.15,0.30,6.25,-0.64,-0.34,9.78
-0.21,-0.26,6.32,-0.60,0.32,9.78
-0.93,-0.36,6.34,-0.59,0.14,9.46
-1.05,-0.11,6.37,-0.47,-0.24,9.35
-0.50,0.46,6.37,-0.30,-0.41,9.50
0.08,0.93,6.51,-0.69,0.10,10.02
-0.48,0.61,6.52,-0.73,0.27,10.28
-1.07,0.33,6.54,-0.69,0.14,10.15
-1.09,0.26,6.56,-0.62,-0.18,9.88
-0.21,0.72,6.64,-0.33,-0.28,9.80
-0.11,1.05,6.69,-0.42,0.04,10.00
-0.60,1.15,6.75,-0.65,0.23,10.12
-1.15,0.94,6.73,-0.85,0.18,10.24
-1.29,0.09,6.71,-0.77,-0.32,10.21
-0.87,-0.17,6.75,-0.76,-0.41,10.01
-0.53,-0.45,6.78,-0.75,-0.27,9.74
-0.39,-0.55,6.84,-0.60,-0.05,9.78
-0.98,-0.29,6.94,-0.77,-0.00,9.65
-0.97,-0.30,6.95,-0.84,-0.22,9.70
-0.66,-0.48,6.93,-0.91,-0.40,9.54
0.13,-0.59,7.01,-0.87,-0.40,9.48
0.84,-0.61,7.05,-0.76,0.12,9.29
0.31,-0.43,7.05,-0.69,0.21,9.34
-0.30,-0.15,7.06,-0.69,0.01,9.32
-0.16,0.15,7.09,-0.88,-0.26,9.49
0.55,-0.29,7.05,-1.05,-0.16,10.28
0.47,-0.77,7.06,-1.10,0.09,10.37
-0.03,-1.33,7.07,-1.08,0.18,10.21
-0.53,-1.66,7.03,-0.88,-0.05,9.89
0.07,-1.02,7.08,-0.57,-0.34,9.51
0.42,-0.59,7.13,-0.60,-0.04,9.50
0.25,-0.47,7.16,-0.77,0.26,9.58
-0.38,-0.58,7.25,-0.73,0.27,9.62
-0.82,-0.14,7.32,-0.63,-0.29,9.46
-0.43,-0.03,7.36,-0.74,-0.54,9.20
0.57,0.18,7.37,-0.48,-0.40,9.34
1.08,0.40,7.54,-0.43,0.08,9.55
-0.56,0.76,7.67,-0.32,0.41,9.80
-1.37,0.81,7.70,-0.56,-0.18,9.62
-1.01,0.86,7.60,-0.61,-0.72,9.46
0.46,0.80,7.75,-0.56,-0.76,9.69
1.49,0.16,7.84,-0.54,0.57,10.18
0.01,-0.06,7.91,-0.39,0.62,10.36
-1.04,0.01,7.89,-0.65,0.04,9.94
-0.83,0.02,7.99,-0.69,-0.66,9.72
1.85,0.13,8.05,-0.69,-0.11,10.28
1.42,0.05,8.15,-0.81,0.61,10.53
-0.37,-0.29,8.10,-0.75,0.66,10.49
-1.49,-0.42,8.16,-0.74,0.05,10.09
0.39,0.24,8.26,-0.64,-0.75,9.55
1.31,0.68,8.36,-0.63,-0.11,9.81
0.67,0.92,8.33,-0.85,0.58,9.98
-0.91,0.85,8.31,-1.10,0.63,9.97
-1.51,0.04,8.26,-1.10,-0.40,9.59
-0.57,-0.23,8.37,-0.97,-0.54,9.59
0.05,-0.24,8.43,-0.89,-0.26,9.73
-0.20,-0.35,8.48,-1.01,0.06,9.89
-1.01,-0.89,8.46,-1.18,-0.10,10.04
-0.79,-1.05,8.51,-1.25,-0.33,9.89
-0.19,-1.08,8.49,-1.04,-0.34,9.98
0.19,-1.10,8.62,-1.00,-0.22,9.95
0.15,-0.96,8.61,-0.93,-0.09,9.78
0.32,-0.79,8.67,-0.99,-0.11,9.57
0.46,-0.57,8.66,-0.91,-0.08,9.54
0.49,-0.31,8.76,-0.76,-0.11,9.60
0.46,0.38,8.89,-0.68,0.02,9.87
0.29,0.54,8.93,-0.85,-0.02,9.88
0.11,0.49,8.92,-0.80,-0.03,10.01
0.05,0.52,9.05,-0.73,-0.03,10.15
-0.36,0.21,9.17,-0.81,0.06,10.05
-0.53,0.00,9.23,-0.72,0.04,9.99
-0.72,-0.16,9.29,-0.61,0.09,9.84
-0.95,-0.13,9.43,-0.80,0.10,9.74
-1.56,-0.47,9.45,-0.72,0.01,9.52
-1.42,-0.47,9.63,-0.67,-0.10,9.50
-1.23,-0.33,9.66,-0.73,-0.09,9.26
-1.19,-0.15,9.79,-0.70,-0.00,9.31
-1.49,0.51,9.80,-0.74,-0.10,9.34
-1.27,0.87,9.92,-0.94,-0.20,9.44
-0.94,0.93,9.88,-0.87,-0.23,9.64
-0.69,0.80,9.89,-0.87,-0.10,9.89
-0.68,0.71,9.95,-0.86,-0.15,9.68
-0.55,0.64,10.06,-0.92,-0.30,9.58
-0.17,0.76,10.03,-1.02,-0.36,9.53
0.32,0.98,10.07,-0.93,-0.15,9.96
-0.13,0.44,10.08,-1.23,0.16,10.43
-0.57,-0.03,10.10,-1.33,-0.04,10.41
-0.47,-0.47,10.14,-1.27,-0.34,10.13
0.03,-0.75,10.16,-1.07,-0.38,10.01
0.63,-0.51,10.23,-1.11,0.11,9.89
-0.03,-0.51,10.25,-1.16,0.23,10.07
-0.69,-0.62,10.22,-1.24,0.04,10.10
-0.65,-0.80,10.21,-1.26,-0.34,10.00
0.58,-1.11,10.30,-1.16,-0.21,9.73
0.65,-1.07,10.28,-1.18,0.08,9.65
0.02,-0.86,10.25,-1.08,0.24,9.71
-0.61,-0.56,10.33,-1.02,0.04,9.77
-0.31,-0.31,10.31,-1.25,-0.32,9.83
0.11,-0.34,10.31,-1.21,-0.20,10.00
0.02,-0.48,10.30,-1.25,0.12,10.05
-0.39,-0.59,10.40,-1.20,0.25,10.02
-1.08,-0.72,10.45,-0.84,-0.17,9.61
-0.71,-0.20,10.49,-0.81,-0.34,9.55
-0.54,0.25,10.52,-0.86,-0.23,9.60
-0.54,0.39,10.59,-0.98,-0.16,9.82
-0.42,-0.01,10.69,-0.95,-0.01,9.82
-0.36,-0.12,10.77,-0.81,-0.07,9.65
-0.51,-0.19,10.84,-0.87,-0.22,9.31
-0.19,0.04,10.91,-0.71,-0.39,9.30
0.74,0.61,10.96,-0.96,-0.20,9.28
0.95,0.46,11.04,-1.13,-0.06,9.31
0.98,0.17,11.06,-1.01,0.05,9.47
0.98,-0.04,11.13,-0.84,-0.01,9.55
1.34,-0.07,11.20,-1.06,-0.46,9.05
2.16,-0.03,11.22,-0.98,-0.41,9.07
2.65,0.04,11.29,-0.93,-0.04,9.29
2.37,0.32,11.34,-0.84,0.29,9.78
0.99,0.58,11.53,-1.16,0.08,10.03
0.98,0.57,11.52,-1.20,-0.24,10.19
1.45,0.59,11.53,-1.24,-0.24,10.37
1.67,0.57,11.56,-1.29,0.05,10.55
0.01,0.16,11.56,-1.30,0.45,10.61
-0.75,-0.07,11.56,-1.29,0.16,10.46
-0.87,-0.21,11.68,-1.14,-0.16,10.37
-0.58,-0.29,11.77,-1.31,-0.31,10.25
-0.61,-0.54,11.71,-1.50,0.10,10.38
-1.12,-0.98,11.66,-1.55,0.19,10.24
-1.58,-1.33,11.66,-1.42,0.06,10.05
-1.68,-1.45,11.76,-1.23,-0.30,9.77
-0.28,-0.81,11.87,-1.18,-0.50,9.27
0.36,-0.43,11.88,-1.38,-0.18,9.14
0.39,-0.11,11.79,-1.44,0.19,9.36
-0.38,-0.08,11.76,-1.23,0.24,9.51
-0.26,0.10,11.82,-1.07,-0.64,9.33
0.79,0.26,11.92,-0.95,-0.74,9.22
2.02,0.63,11.99,-1.19,-0.27,9.32
2.27,0.95,12.06,-1.21,0.31,9.74
0.12,0.53,11.93,-1.20,0.21,10.09
-0.03,0.31,11.96,-1.12,-0.45,9.91
1.12,0.19,11.97,-1.13,-0.68,9.70
2.32,0.26,12.02,-1.02,-0.28,9.82
0.86,0.35,12.11,-1.19,0.89,10.48
-0.93,0.06,12.10,-1.35,0.54,10.50
-1.71,-0.40,12.07,-1.09,-0.13,10.46
-1.11,-0.40,12.13,-0.96,-0.56,10.36
-0.34,0.01,12.07,-1.30,0.21,10.05
-1.20,-0.13,12.03,-1.30,0.57,10.23
-2.53,-0.39,12.03,-1.26,0.39,10.13
-3.11,-0.45,12.08,-1.14,-0.20,10.04
-1.66,-0.17,12.12,-1.16,-0.72,9.51
-0.94,0.11,12.13,-1.32,-0.35,9.52
-1.10,0.28,12.06,-1.39,0.06,9.77
-1.69,0.12,11.94,-1.51,0.22,9.81
-1.76,-0.67,11.99,-1.30,-0.39,9.46
-0.96,-0.79,12.01,-1.15,-0.63,9.14
0.03,-0.56,12.02,-1.00,-0.55,9.30
0.45,-0.21,11.93,-1.37,-0.17,9.19
0.00,-0.40,11.82,-1.35,0.08,9.80
-0.07,-0.72,11.82,-1.37,-0.15,9.70
0.25,-0.76,11.86,-1.23,-0.39,9.59
0.76,-0.50,11.90,-1.02,-0.57,9.60
1.63,0.04,11.84,-1.38,-0.14,9.65
1.49,0.12,11.79,-1.41,0.14,9.96
0.94,-0.09,11.79,-1.38,0.26,10.05
0.39,-0.39,11.81,-1.20,0.05,10.07
0.64,-0.59,11.85,-1.32,-0.39,9.31
1.34,-0.54,11.83,-1.19,-0.23,9.44
1.43,-0.46,11.85,-1.28,0.15,9.64
0.56,-0.44,11.87,-1.01,0.32,10.14
-0.81,-0.68,12.03,-1.45,-0.22,10.32
-0.36,-0.96,12.02,-1.34,-0.50,10.35
0.31,-1.03,12.07,-1.23,-0.31,10.32
0.28,-0.93,12.12,-1.26,0.11,10.15
-1.65,-0.80,12.11,-1.12,0.10,10.19
-1.78,-0.80,12.11,-1.20,-0.37,9.88
-1.01,-0.72,12.19,-1.24,-0.58,9.91
-0.32,-0.60,12.19,-1.31,-0.35,9.86
-0.99,-0.55,12.23,-1.13,0.38,10.08
-1.84,-0.66,12.23,-1.23,0.09,9.61
-1.65,-0.71,12.25,-1.07,-0.43,9.27
-0.60,-0.41,12.29,-0.93,-0.65,8.92
0.49,0.47,12.29,-1.08,-0.15,8.64
0.38,0.61,12.23,-1.06,0.00,8.73
0.41,0.62,12.22,-0.98,-0.03,8.85
0.66,0.77,12.28,-1.05,-0.22,8.98
1.35,0.74,12.27,-1.25,-0.35,9.21
1.82,0.61,12.17,-1.42,-0.19,9.31
1.89,0.35,12.17,-1.26,0.03,9.67
1.64,0.19,12.16,-1.27,0.22,9.94
0.59,-0.29,12.18,-1.12,0.04,10.29
0.56,-0.17,12.18,-1.25,-0.14,10.28
0.47,-0.10,12.17,-1.28,-0.19,10.42
0.43,0.00,12.12,-1.40,-0.05,10.67
-0.48,-0.47,12.02,-1.49,0.06,10.81
-0.81,-0.75,11.98,-1.28,-0.14,10.74
-0.67,-0.66,12.04,-1.16,-0.25,10.45
-0.39,-0.36,12.15,-1.13,-0.21,10.32
-0.77,0.21,12.18,-1.29,0.06,10.52
-1.32,0.40,12.16,-1.32,0.03,10.42
-1.50,0.56,12.15,-1.31,-0.16,10.11
-1.28,0.59,12.11,-1.21,-0.27,9.83
-0.91,0.89,12.12,-1.19,-0.11,9.55
-1.00,0.83,12.09,-1.28,-0.12,9.35
-0.91,0.61,12.08,-1.19,-0.19,9.47
-0.66,0.39,12.06,-1.35,-0.24,9.39
-0.20,-0.28,11.93,-1.45,-0.15,9.56
-0.07,-0.84,11.89,-1.52,-0.11,9.37
0.02,-1.36,11.87,-1.48,-0.15,9.36
0.14,-1.70,11.88,-1.35,-0.19,9.33
0.39,-1.63,11.92,-1.23,-0.06,9.40
0.30,-1.46,11.93,-1.35,-0.03,9.41
0.01,-1.29,11.86,-1.31,-0.06,9.53
0.07,-1.05,11.84,-1.34,-0.09,9.55
0.08,-0.59,11.85,-1.21,-0.02,9.66
-0.05,-0.44,11.83,-1.32,0.00,9.56
-0.26,-0.34,11.81,-1.09,-0.08,9.66
-0.18,-0.15,11.83,-1.10,-0.20,9.72
0.05,-0.01,11.70,-1.29,-0.16,9.87
0.05,-0.29,11.65,-1.39,-0.06,9.97
-0.25,-0.60,11.52,-1.32,-0.05,10.18
-0.48,-0.88,11.46,-1.21,-0.14,10.27
-0.29,-1.52,11.33,-1.30,-0.22,10.05
-0.02,-1.64,11.28,-1.23,-0.12,9.95
-0.13,-1.50,11.14,-1.17,-0.01,10.04
-0.50,-1.31,11.01,-1.33,-0.01,9.97
-0.45,-1.46,10.83,-1.08,-0.27,9.98
0.01,-1.33,10.81,-1.01,-0.26,9.68
0.28,-0.91,10.74,-0.98,-0.19,9.51
0.32,-0.27,10.66,-0.95,-0.07,9.44
0.29,0.35,10.29,-1.24,-0.17,9.48
0.42,0.39,10.20,-1.17,-0.23,9.91
0.38,0.08,10.07,-1.19,-0.31,10.18
0.73,-0.29,9.98,-1.13,-0.21,10.47
0.52,-0.89,10.03,-1.01,0.31,10.34
-0.37,-0.94,9.96,-0.92,0.29,10.17
-1.02,-0.74,9.92,-0.87,-0.04,9.80
-0.96,-0.47,9.79,-0.79,-0.42,9.55
0.31,0.15,9.75,-0.80,-0.19,9.40
0.37,0.18,9.79,-0.78,0.20,9.51
-0.26,0.14,9.85,-0.67,0.34,9.66
-0.98,0.33,9.86,-0.65,0.05,9.54
-0.37,0.82,9.79,-0.89,-0.65,9.22
0.64,0.99,9.74,-0.83,-0.41,9.47
0.84,0.81,9.75,-0.84,0.09,9.76
0.21,0.52,9.79,-0.98,0.39,9.83
-0.93,-0.25,9.85,-0.87,-0.35,9.68
-0.19,-0.24,9.85,-0.96,-0.61,9.41
0.87,-0.08,9.88,-0.88,-0.42,9.50
1.10,-0.07,9.88,-1.04,0.08,9.78
-0.56,-0.61,9.80,-0.98,0.33,10.24
-0.93,-0.79,9.81,-1.07,-0.10,9.93
-0.49,-0.87,9.88,-1.13,-0.47,9.66
0.26,-0.69,9.86,-1.00,-0.51,9.93
0.50,-0.46,9.81,-1.02,0.11,10.27
-0.02,-0.33,9.79,-1.11,0.27,10.33
-0.74,-0.38,9.78,-1.24,0.07,10.04
-0.94,-0.36,9.75,-1.05,-0.30,10.04
0.13,0.14,9.75,-1.05,-0.37,9.67
0.45,0.33,9.77,-0.97,-0.01,9.85
0.09,0.32,9.77,-1.24,0.30,9.72
-0.68,0.01,9.68,-1.27,0.30,9.68
-0.90,0.02,9.60,-0.90,-0.63,9.41
0.16,0.14,9.71,-1.03,-0.65,9.20
1.14,0.34,9.68,-1.10,-0.32,9.42
1.40,0.18,9.58,-1.21,0.14,9.62
-0.02,-0.18,9.57,-0.88,0.02,10.17
-0.34,-0.18,9.59,-0.99,-0.50,10.02
0.62,-0.12,9.61,-1.01,-0.81,10.13
1.75,-0.19,9.65,-1.07,-0.47,10.38
0.76,-0.79,9.59,-1.17,0.66,10.59
-0.51,-1.12,9.60,-0.92,0.39,10.32
-0.89,-1.24,9.63,-0.85,-0.32,9.68
-0.02,-0.92,9.71,-0.77,-0.76,9.23
1.82,0.39,9.75,-0.71,-0.02,9.27
1.17,0.84,9.74,-0.89,0.54,9.52
-0.13,0.89,9.74,-1.04,0.55,9.77
-0.96,0.53,9.73,-1.02,0.02,9.82
0.37,0.16,9.76,-0.86,-0.75,9.70
1.17,0.12,9.82,-0.98,-0.37,9.55
1.25,-0.03,9.79,-1.18,0.17,9.53
0.37,-0.23,9.76,-0.96,0.46,9.87
-1.07,-0.21,9.75,-0.95,-0.20,9.95
-0.58,-0.49,9.82,-1.10,-0.64,9.72
0.56,-0.71,9.80,-1.16,-0.59,9.69
1.26,-0.84,9.77,-1.02,-0.07,9.73
-0.07,-0.74,9.74,-0.99,0.50,9.87
-1.04,-0.85,9.70,-1.02,0.02,9.61
-0.75,-0.84,9.68,-1.10,-0.59,9.35
0.67,-0.58,9.74,-0.93,-0.77,9.37
1.33,-0.30,9.66,-1.21,0.26,9.80
0.32,-0.44,9.57,-1.18,0.38,10.02
-0.47,-0.76,9.57,-1.19,-0.01,9.85
-0.14,-0.74,9.66,-1.00,-0.55,9.63
1.71,-0.01,9.73,-0.87,-0.29,9.58
1.60,0.47,9.68,-0.85,0.14,9.87
0.84,0.73,9.65,-1.00,0.37,9.93
0.35,0.87,9.67,-1.06,0.25,9.89
0.25,1.06,9.71,-0.73,-0.19,10.04
0.41,1.28,9.70,-0.88,-0.24,9.92
0.61,1.38,9.65,-0.93,-0.06,10.17
0.20,1.16,9.63,-1.08,0.20,10.36
-1.26,0.31,9.61,-0.83,0.20,11.11
-1.74,-0.21,9.64,-1.11,-0.09,10.70
-1.83,-0.85,9.64,-1.34,-0.38,10.30
-1.21,-1.21,9.64,-1.09,-0.37,10.30
-1.37,-1.57,9.64,-0.98,0.18,10.25
-1.91,-1.75,9.64,-0.99,0.13,10.03
-2.07,-1.89,9.69,-1.19,-0.17,9.48
-1.56,-1.69,9.70,-1.00,-0.46,9.34
-0.47,-0.44,9.65,-1.05,-0.17,9.34
-0.61,-0.26,9.63,-1.03,0.02,9.46
-0.84,-0.26,9.64,-0.98,0.03,9.53
-0.94,-0.07,9.65,-0.96,-0.22,9.47
-0.01,0.54,9.59,-1.07,-0.30,9.45
0.02,0.55,9.55,-1.11,-0.06,9.67
-0.29,0.38,9.51,-1.08,0.04,9.79
-0.48,0.00,9.49,-1.01,-0.10,9.71
0.14,-0.43,9.49,-0.96,-0.15,9.53
0.26,-0.50,9.38,-1.09,-0.02,9.55
0.08,-0.57,9.32,-1.12,0.05,9.71
-0.31,-0.94,9.29,-1.13,-0.01,9.80
-0.21,-1.37,9.29,-0.97,-0.28,9.97
0.07,-1.45,9.28,-1.06,-0.14,9.82
0.02,-1.40,9.26,-1.06,0.10,9.82
-0.57,-1.35,9.20,-1.12,0.09,9.83
-0.75,-1.22,9.12,-1.03,-0.38,9.73
-0.35,-1.23,9.12,-0.95,-0.39,9.61
0.16,-0.99,9.16,-0.92,-0.17,9.53
0.21,-0.71,9.19,-0.89,0.02,9.61
-0.54,-0.27,9.07,-0.93,-0.06,9.88
-0.56,-0.12,9.04,-0.96,-0.29,9.91
-0.06,-0.05,9.04,-0.98,-0.40,9.93
0.38,-0.07,9.05,-0.83,-0.32,10.00
0.29,0.06,8.98,-0.83,0.14,9.92
-0.09,0.07,8.96,-0.82,0.04,9.80
-0.30,-0.02,8.89,-0.83,-0.22,9.64
0.07,0.15,8.86,-0.64,-0.46,9.75
1.12,0.29,8.85,-0.83,-0.22,9.72
1.18,0.09,8.83,-0.84,0.16,9.84
0.74,-0.06,8.80,-0.80,0.29,9.70
0.17,-0.11,8.76,-0.73,0.12,9.60
0.38,0.02,8.72,-0.81,-0.44,9.38
0.81,-0.14,8.70,-0.85,-0.34,9.59
1.09,-0.31,8.71,-0.91,0.01,9.77
0.81,-0.56,8.71,-1.03,0.34,9.88
-0.73,-1.01,8.66,-0.87,0.04,9.92
-0.85,-0.89,8.61,-0.81,-0.40,9.90
-0.21,-0.76,8.60,-0.99,-0.57,9.78
0.53,-0.88,8.57,-1.03,-0.30,9.74
-0.25,-0.92,8.57,-0.89,0.47,10.09
-1.36,-0.83,8.47,-0.91,0.17,9.96
-1.45,-0.89,8.45,-1.02,-0.44,9.66
-0.48,-1.02,8.47,-0.96,-0.77,9.26
1.44,-0.53,8.37,-0.93,0.12,9.46
0.55,-0.44,8.34,-0.86,0.53,9.74
-0.76,-0.39,8.23,-0.75,0.30,9.92
-1.22,-0.31,8.18,-1.00,-0.41,9.61
1.75,-0.04,8.17,-0.89,-0.76,9.71
2.33,-0.07,8.11,-0.95,-0.02,9.91
1.57,-0.00,7.96,-0.93,0.60,10.19
0.21,-0.25,7.88,-1.13,0.51,10.09
0.07,-1.05,7.59,-0.96,-0.64,10.01
1.18,-1.21,7.60,-0.85,-0.53,10.14
1.57,-1.32,7.57,-0.92,0.02,10.46
0.73,-1.68,7.50,-1.12,0.47,10.59
-1.07,-2.38,7.33,-0.86,0.17,10.40
-1.20,-2.28,7.28,-0.77,-0.31,10.07
-0.83,-1.94,7.15,-0.74,-0.56,9.81
-0.15,-1.57,7.14,-0.67,-0.42,9.81
-0.25,-1.44,6.95,-0.80,0.25,9.99
-0.94,-1.53,6.86,-0.78,0.22,9.95
-1.38,-1.47,6.71,-0.71,-0.13,9.69
-1.07,-1.28,6.66,-0.59,-0.55,9.45
0.70,-0.75,6.48,-0.53,-0.41,9.45
0.83,-0.63,6.40,-0.54,0.04,9.67
0.32,-0.66,6.29,-0.62,0.20,9.75
-0.23,-0.85,6.18,-0.53,-0.06,9.72
0.94,-0.36,6.00,-0.40,-0.47,9.68
1.38,-0.24,5.88,-0.45,-0.16,9.69
1.24,-0.29,5.75,-0.56,0.10,9.87
0.62,-0.57,5.58,-0.58,0.09,9.81
0.65,-0.64,5.33,-0.24,-0.29,9.77
0.98,-0.62,5.26,-0.29,-0.23,9.78
1.04,-0.66,5.16,-0.40,0.02,9.83
0.68,-0.73,5.04,-0.51,0.13,9.91
0.01,-0.92,4.69,-0.50,-0.10,9.87
0.15,-0.98,4.57,-0.36,-0.13,9.85
0.23,-0.98,4.49,-0.33,-0.06,9.74
0.07,-0.84,4.35,-0.34,-0.01,9.64
-0.30,-0.38,4.07,-0.63,0.08,9.48
-0.55,-0.48,3.81,-0.67,0.17,9.66
-0.86,-0.80,3.63,-0.76,0.21,9.81
-1.17,-1.38,3.46,-0.86,0.13,9.78
-1.31,-2.67,3.20,-0.81,-0.09,9.57
-1.14,-3.20,2.99,-0.91,0.01,9.70
-1.32,-3.77,2.82,-1.03,0.41,9.97
-2.33,-4.56,2.69,-1.08,0.58,10.39
-4.79,-6.49,2.54,-0.75,-0.32,10.30
-3.96,-6.57,2.58,-0.56,-0.81,9.78
-2.53,-6.16,2.56,-0.56,-0.70,9.29
-1.33,-5.47,2.42,-0.64,-0.18,9.18
-2.72,-4.88,1.95,-0.34,0.39,9.19
-3.40,-4.10,1.65,0.04,-0.12,9.41
-3.13,-3.29,1.56,-0.27,-0.71,9.03
-1.79,-2.88,1.53,-0.35,-0.96,9.23
0.19,-2.91,1.39,-0.14,-0.08,9.96
-0.25,-2.61,1.33,0.01,0.15,10.01
-1.37,-2.43,1.13,0.26,-0.12,9.69
-1.33,-2.10,1.00,0.27,-0.60,9.50
-0.15,-1.10,0.87,0.94,-0.61,10.16
0.28,-0.47,0.92,0.90,-0.46,10.45
1.01,-0.11,0.99,0.63,-0.40,10.33
1.56,-0.02,0.92,0.66,-0.17,10.51
1.01,0.53,0.61,0.60,0.10,10.48
0.57,0.94,0.44,0.86,0.11,10.96
-0.04,1.01,0.38,0.72,0.05,11.25
-0.76,0.61,0.37,0.63,0.00,11.25
-1.05,-0.51,0.59,0.36,-0.05,10.50
-1.04,-0.72,0.53,0.66,0.04,10.34
-1.70,-0.37,0.51,0.79,0.24,10.31
-2.83,0.05,0.46,0.34,0.31,9.66
-3.67,-0.01,0.47,0.57,-0.29,9.55
-3.29,0.24,0.57,0.46,-0.47,9.30
-2.86,0.46,0.66,0.25,-0.34,9.11
-2.35,0.54,0.72,0.08,-0.12,8.93
-2.40,0.67,0.69,0.25,0.04,8.60
-2.70,1.36,0.67,0.37,-0.16,8.55
-2.59,1.98,0.72,0.24,-0.42,8.34
-1.98,2.29,0.75,0.13,-0.59,8.48
-0.71,2.16,0.87,-0.20,-0.26,9.08
-0.58,1.65,0.83,-0.27,-0.09,9.38
-0.80,0.95,0.86,-0.57,-0.19,9.35
-0.95,0.13,0.79,-0.63,-0.55,9.09
1.40,-1.69,0.66,-0.68,-0.74,8.26
3.01,-2.39,0.64,-0.64,-0.42,7.99
3.31,-2.96,0.76,-0.21,0.05,8.30
2.14,-2.76,0.77,0.48,0.32,9.23
0.41,-0.75,0.77,-0.72,-0.30,9.66
1.27,-0.63,0.66,-0.74,-0.74,10.53
2.52,-0.93,0.58,-0.50,-0.50,11.40
2.30,-1.12,0.71,-0.45,-0.03,11.54
0.56,-1.27,0.77,0.20,-0.47,10.30
1.24,-0.69,0.76,-0.00,-0.76,9.44
2.13,0.35,0.73,0.38,-0.35,9.58
1.93,1.63,0.63,0.59,0.19,10.47
-1.43,1.54,0.42,-0.34,0.32,11.11
-1.83,0.23,0.40,-0.17,-0.43,11.25
-0.87,-0.62,0.41,-0.05,-0.86,10.86
-0.03,-0.84,0.45,0.36,-0.64,10.73
-1.19,-0.40,0.36,0.44,0.31,10.79
-2.45,-0.30,0.31,0.13,0.25,10.67
-3.13,-0.37,0.26,0.10,-0.18,10.71
-2.98,-0.96,0.24,-0.17,-0.60,10.14
-0.93,-2.21,0.25,0.35,-0.81,9.47
-0.38,-1.94,0.24,0.38,-0.50,8.90
-0.35,-1.49,0.21,0.24,-0.11,8.56
-0.58,-1.06,0.12,0.20,0.13,8.49
-1.09,-0.62,0.00,0.09,-0.22,8.54
-0.59,-0.44,-0.01,0.04,-0.56,8.67
0.17,-0.47,-0.06,-0.09,-0.69,8.75
1.01,-0.69,-0.14,-0.12,-0.51,8.88
1.36,-1.09,-0.28,-0.09,0.00,9.03
1.12,-0.87,-0.30,0.36,0.10,9.39
0.75,-0.50,-0.28,0.28,0.04,9.38
0.50,-0.27,-0.27,-0.09,-0.16,9.28
0.67,-0.47,-0.45,0.05,-0.52,9.60
1.22,-0.60,-0.48,-0.13,-0.43,9.55
1.50,-0.77,-0.48,0.10,-0.18,9.75
1.23,-0.92,-0.52,0.25,0.13,10.03
-0.46,-1.09,-0.61,0.13,-0.18,10.12
-0.45,-1.23,-0.66,0.03,-0.60,10.18
0.29,-1.53,-0.73,-0.02,-0.76,10.30
1.09,-1.81,-0.79,0.06,-0.40,10.63
0.05,-2.51,-0.88,0.04,0.40,10.72
-0.89,-2.85,-0.97,0.13,0.16,10.45
-1.25,-2.84,-1.00,0.20,-0.47,10.09
-0.65,-2.43,-1.12,0.40,-0.88,9.96
0.66,-1.58,-1.29,0.15,-0.21,10.35
0.08,-1.74,-1.45,0.04,0.27,10.60
-0.97,-2.13,-1.57,-0.03,0.23,10.49
-1.51,-2.37,-1.72,0.26,-0.28,10.30
-0.30,-1.60,-1.91,0.49,-0.85,9.74
0.51,-1.13,-2.05,0.32,-0.40,9.64
0.56,-1.20,-2.10,0.11,0.21,9.57
-0.33,-1.55,-2.33,0.29,0.48,9.70
-2.05,-1.44,-2.64,0.49,-0.45,9.10
-1.22,-1.39,-2.76,0.36,-0.85,8.78
-0.05,-1.46,-2.89,0.49,-0.68,8.94
0.51,-1.50,-2.98,0.51,-0.20,9.20
-1.05,-1.77,-3.27,0.38,0.28,9.60
-1.72,-2.11,-3.46,0.21,-0.24,9.42
-1.37,-2.18,-3.68,0.53,-0.74,9.44
-0.29,-1.94,-3.65,0.69,-0.80,9.52
0.31,-1.83,-3.95,0.57,-0.00,9.69
-0.42,-1.77,-4.02,0.69,0.12,9.81
-0.87,-1.33,-4.18,0.74,-0.10,9.70
-0.82,-0.84,-4.26,0.87,-0.43,9.72
0.27,-0.39,-4.56,0.65,-0.53,9.73
0.32,-0.34,-4.62,0.79,-0.37,10.16
0.15,-0.40,-4.83,0.62,-0.27,10.12
0.19,-0.69,-4.96,0.66,-0.28,10.16
0.63,-1.22,-5.29,0.73,-0.28,10.08
0.57,-1.18,-5.39,0.79,-0.24,10.18
0.18,-1.18,-5.58,0.81,-0.28,10.09
0.06,-1.14,-5.76,0.85,-0.30,10.08
0.01,-1.06,-6.03,0.72,-0.09,10.00
-0.30,-1.17,-6.18,0.77,0.02,10.09
-0.81,-1.25,-6.43,0.82,-0.06,10.02
-1.19,-1.27,-6.60,0.68,-0.27,9.89
-0.86,-1.57,-7.02,0.66,-0.40,9.92
-0.64,-1.91,-7.11,0.73,-0.26,10.05
-0.79,-2.11,-7.29,0.84,-0.18,10.02
-0.98,-2.22,-7.44,0.76,-0.19,9.79
-1.03,-2.13,-7.92,0.89,-0.43,9.44
-0.62,-2.01,-8.05,0.93,-0.52,9.34
-0.23,-1.90,-8.23,0.98,-0.48,9.40
0.03,-1.81,-8.40,1.00,-0.32,9.44
-0.07,-1.70,-8.67,1.10,-0.26,9.51
-0.12,-1.51,-8.81,0.98,-0.39,9.31
0.05,-1.30,-9.03,1.13,-0.51,9.35
0.36,-1.03,-9.19,1.26,-0.47,9.47
0.99,-0.84,-9.39,1.25,-0.13,9.36
0.81,-0.74,-9.51,1.28,-0.04,9.32
0.29,-0.63,-9.69,1.23,-0.12,9.07
0.25,-0.37,-9.82,1.41,-0.38,9.15
1.12,0.19,-10.09,1.39,-0.49,9.35
1.51,0.25,-10.16,1.30,-0.14,9.74
0.95,0.04,-10.34,1.18,0.13,10.06
0.03,-0.26,-10.49,1.20,0.06,10.34
-0.08,-1.04,-10.72,1.28,-0.67,10.19
0.84,-1.27,-10.73,1.33,-0.58,10.16
1.15,-1.31,-10.79,1.44,-0.09,10.29
0.45,-1.15,-10.89,1.64,0.24,10.66
-1.46,-0.93,-11.05,1.18,-0.18,10.32
-1.08,-0.96,-11.05,1.36,-0.50,10.47
-0.49,-0.98,-11.12,1.53,-0.50,10.53
-0.16,-0.83,-11.14,1.52,-0.17,10.58
-1.77,-0.63,-11.24,1.44,-0.18,10.27
-1.81,-0.44,-11.30,1.42,-0.51,10.08
-1.14,-0.23,-11.29,1.43,-0.65,9.96
-0.45,-0.23,-11.34,1.52,-0.40,10.00
-1.18,-0.37,-11.38,1.44,-0.05,9.70
-1.58,-0.46,-11.45,1.52,-0.40,9.18
-0.99,-0.39,-11.43,1.62,-0.71,8.76
0.11,-0.00,-11.45,1.68,-0.62,8.59
0.72,1.24,-11.60,1.85,-0.12,8.76
0.28,1.52,-11.68,1.61,-0.09,8.72
0.02,1.48,-11.76,1.47,-0.29,8.87
0.35,1.47,-11.82,1.51,-0.51,9.28
1.13,1.16,-11.98,1.28,-0.24,10.15
0.97,0.42,-11.98,0.96,-0.06,10.24
0.41,-0.55,-12.13,1.19,-0.13,10.39
0.23,-1.10,-12.18,1.42,-0.35,10.23
0.96,-0.84,-12.33,1.48,-0.36,9.64
0.84,-0.51,-12.35,1.55,-0.07,9.82
0.14,-0.12,-12.46,1.62,0.21,10.17
-0.70,0.03,-12.44,1.36,0.18,10.31
-0.90,-0.53,-12.64,1.21,-0.59,10.15
-0.32,-0.57,-12.64,1.32,-0.70,9.93
0.21,-0.17,-12.72,1.58,-0.47,9.91
0.34,0.31,-12.69,1.55,-0.04,9.86
-1.05,0.63,-12.84,1.65,0.07,9.86
-1.47,0.91,-12.85,1.64,-0.35,9.81
-1.36,1.08,-12.97,1.51,-0.75,9.72
-0.42,1.01,-12.98,1.46,-0.85,9.87
0.80,0.06,-13.08,1.35,-0.12,9.76
0.45,-0.20,-13.09,1.63,0.15,9.78
-0.49,-0.16,-13.18,1.75,0.08,9.53
-0.91,0.19,-13.23,1.76,-0.30,9.37
0.33,0.48,-13.39,1.60,-0.63,9.45
1.10,0.38,-13.40,1.44,-0.17,9.80
0.65,-0.01,-13.55,1.38,0.30,10.16
-0.53,-0.45,-13.61,1.40,0.34,10.38
-1.24,-1.23,-13.76,1.49,-0.67,9.76
-0.15,-1.04,-13.72,1.67,-0.62,9.82
0.16,-0.69,-13.82,1.77,-0.22,9.91
-0.59,-0.47,-13.87,1.68,0.21,10.02
-2.26,-0.45,-14.13,1.65,-0.15,9.97
-2.17,-0.46,-14.10,1.67,-0.56,9.85
-1.32,-0.23,-14.14,1.66,-0.69,9.80
-0.90,-0.19,-14.24,1.63,-0.40,9.82
-1.62,-0.42,-14.41,1.75,0.03,9.83
-2.01,-0.38,-14.46,1.74,-0.15,9.61
-1.92,-0.30,-14.53,1.71,-0.42,9.37
-1.51,-0.22,-14.62,1.78,-0.50,9.47
-1.08,-0.43,-14.86,1.43,-0.12,9.65
-1.54,-0.98,-14.97,1.57,-0.05,9.92
-2.10,-1.40,-15.11,1.65,-0.29,9.80
-2.02,-1.51,-15.07,1.79,-0.61,9.56
-0.41,-0.61,-15.20,2.00,-0.75,9.20
0.42,0.16,-15.23,1.97,-0.41,9.27
0.54,0.87,-15.41,1.90,0.03,9.50
-0.16,1.12,-15.58,1.77,0.28,9.76
-1.48,0.75,-15.83,1.85,-0.63,9.98
-0.54,0.56,-15.75,1.93,-1.09,9.93
0.91,0.49,-15.71,1.76,-0.96,9.72
1.88,0.41,-15.79,1.75,-0.27,9.76
0.16,0.45,-16.02,2.15,0.15,9.84
-0.40,0.98,-16.08,2.35,-0.17,9.79
-0.33,1.38,-16.11,2.09,-0.61,9.61
0.13,1.40,-16.19,1.98,-0.76,9.75
0.79,1.06,-16.15,1.83,-0.22,10.49
0.34,0.69,-16.25,1.62,0.00,10.56
-0.24,-0.06,-16.27,1.55,-0.06,10.39
-0.45,-0.58,-16.38,1.85,-0.29,10.22
-0.04,-0.25,-16.37,2.18,-0.63,9.65
0.41,0.16,-16.33,2.20,-0.44,9.56
0.47,0.44,-16.23,2.13,-0.12,9.52
0.14,0.79,-16.29,2.07,0.10,9.49
-0.81,1.19,-16.38,1.92,-0.38,9.14
-0.37,1.31,-16.45,1.96,-0.70,9.10
0.38,1.44,-16.46,1.94,-0.80,9.11
1.15,1.51,-16.54,1.98,-0.57,9.19
1.10,0.87,-16.47,1.78,-0.08,9.32
0.80,0.67,-16.56,1.89,-0.18,9.48
0.81,0.53,-16.61,1.80,-0.44,9.35
1.26,0.34,-16.74,1.65,-0.60,9.18
2.34,-0.20,-16.82,1.77,-0.25,9.48
2.30,-0.33,-16.89,1.86,0.08,9.67
1.73,-0.42,-16.82,1.73,0.15,9.75
0.99,-0.51,-16.99,1.62,-0.02,9.60
1.24,-0.62,-17.12,1.55,-0.50,9.60
1.59,-0.65,-17.29,1.56,-0.33,9.76
1.54,-0.78,-17.28,1.62,-0.03,10.06
1.00,-1.02,-17.35,1.48,0.14,10.00
0.07,-1.16,-17.36,2.07,-0.29,10.25
-0.11,-0.67,-17.42,2.17,-0.44,10.35
0.11,0.12,-17.38,1.96,-0.32,10.45
0.13,0.53,-17.45,1.72,-0.24,10.50
-0.21,0.06,-17.49,1.82,0.02,10.53
-0.56,-0.13,-17.51,1.97,-0.07,10.24
-0.80,-0.21,-17.47,2.28,-0.33,10.01
-0.70,0.01,-17.53,2.39,-0.62,9.78
-0.03,1.05,-17.41,2.29,-0.27,10.14
-0.42,1.12,-17.55,1.97,0.10,10.38
-1.17,0.67,-17.50,1.95,0.21,10.72
-1.79,0.12,-17.51,2.05,-0.20,10.70
-0.60,-0.50,-17.48,2.14,-0.95,9.67
0.58,-0.45,-17.53,2.34,-0.59,9.40
0.83,-0.19,-17.50,2.30,0.09,9.38
-0.01,0.11,-17.46,2.27,0.36,9.34
-1.83,0.79,-17.56,2.24,-0.39,9.35
-1.01,1.02,-17.49,2.14,-0.85,9.34
0.25,1.02,-17.42,2.14,-0.88,9.55
1.17,0.92,-17.45,1.99,-0.42,9.55
0.05,1.28,-17.52,2.26,0.28,9.90
-0.90,1.44,-17.62,2.07,0.04,9.59
-1.04,1.45,-17.65,2.12,-0.27,9.54
-0.70,1.34,-17.58,2.06,-0.43,9.56
-0.71,1.47,-17.62,2.03,0.21,10.22
-2.12,1.12,-17.66,1.77,0.08,10.14
-2.87,0.63,-17.79,1.83,-0.37,10.07
-2.23,0.37,-17.66,1.97,-0.81,10.03
-0.25,0.34,-17.73,1.98,-0.22,10.11
-0.89,0.17,-17.74,1.90,0.27,10.25
-2.20,-0.04,-17.86,1.76,0.25,10.19
-3.00,-0.25,-17.82,1.97,-0.41,10.05
-0.37,-0.31,-17.70,1.93,-1.07,9.49
0.98,-0.05,-17.65,1.88,-0.46,9.53
0.79,0.05,-17.78,1.76,0.31,9.56
-0.54,0.04,-17.85,1.82,0.47,9.42
-1.40,0.35,-17.80,2.22,-0.84,8.98
0.16,0.94,-17.73,2.27,-1.07,9.02
1.46,1.47,-17.72,2.15,-0.62,9.33
1.70,1.73,-17.72,1.85,0.13,9.63
-0.57,1.18,-17.90,1.85,0.18,10.22
-1.08,0.93,-17.90,2.02,-0.27,10.14
-0.43,0.89,-17.80,2.19,-0.62,9.97
0.53,0.90,-17.73,2.17,-0.47,9.90
-0.15,0.90,-17.67,2.11,0.44,10.12
-1.33,0.89,-17.71,2.05,0.39,10.15
-2.24,0.77,-17.73,2.14,-0.03,10.07
-2.38,0.65,-17.71,2.25,-0.52,9.98
-0.92,0.78,-17.47,2.09,-0.52,9.88
-0.79,0.53,-17.43,1.93,-0.19,9.90
-1.19,0.22,-17.48,1.86,-0.03,9.73
-1.63,0.01,-17.50,2.02,-0.23,9.53
-0.53,0.43,-17.45,2.29,-0.73,9.11
0.31,0.71,-17.38,2.15,-0.56,8.97
0.84,0.92,-17.33,2.10,-0.23,9.09
0.69,1.09,-17.38,1.93,0.05,9.28
-0.36,1.49,-17.51,2.09,-0.15,9.94
-0.30,1.37,-17.51,1.87,-0.40,9.93
0.43,0.87,-17.48,1.48,-0.46,9.76
1.12,0.06,-17.48,1.43,-0.24,9.71
0.38,-0.90,-17.64,1.69,0.26,9.44
-0.35,-1.11,-17.66,1.79,-0.03,9.07
-0.33,-1.17,-17.68,1.92,-0.42,8.89
0.32,-0.94,-17.69,1.93,-0.56,8.87
0.99,-0.24,-17.61,2.08,0.10,9.93
0.02,0.16,-17.69,1.72,0.30,10.30
-1.03,0.04,-17.73,1.41,0.06,10.27
-0.90,-0.27,-17.72,1.74,-0.45,10.54
0.59,0.11,-17.58,2.16,-0.44,10.47
0.44,0.70,-17.57,2.07,-0.03,10.40
-0.21,0.98,-17.64,2.00,0.23,10.17
-0.96,1.17,-17.65,2.10,0.19,10.33
-1.57,1.58,-17.63,2.11,-0.32,10.27
-1.39,1.25,-17.56,2.09,-0.56,10.34
-1.06,0.86,-17.57,2.05,-0.64,10.12
-0.48,0.51,-17.47,1.96,-0.50,9.89
-0.10,-0.06,-17.50,2.12,0.09,9.67
-0.70,-0.13,-17.43,2.15,0.12,9.57
-1.29,-0.09,-17.41,2.34,-0.27,9.42
-1.03,-0.05,-17.40,2.24,-0.64,9.24
1.06,-0.02,-17.24,2.09,-0.36,9.28
1.32,-0.09,-17.14,2.00,0.23,9.47
0.39,-0.16,-17.14,1.91,0.38,9.38
-0.67,-0.12,-17.21,2.15,-0.00,9.23
0.69,0.85,-16.97,2.32,-0.82,8.82
1.84,1.51,-16.89,2.19,-0.45,9.02
1.87,1.86,-16.83,2.02,0.18,9.34
0.81,1.99,-16.82,2.01,0.55,9.80
-1.01,1.99,-16.83,1.99,-0.23,10.01
-0.55,1.92,-16.72,1.96,-0.69,10.08
0.31,1.76,-16.66,1.88,-0.67,10.11
0.83,1.59,-16.60,1.86,-0.18,10.51
-0.87,0.92,-16.55,1.68,0.51,10.82
-1.99,0.38,-16.47,1.61,0.22,10.77
-2.37,-0.18,-16.45,1.54,-0.37,10.36
-1.70,-0.52,-16.43,1.68,-0.71,10.25
-0.44,-0.85,-16.14,1.70,-0.24,10.10
-0.65,-1.04,-16.02,1.60,0.18,9.91
-1.21,-1.22,-15.90,1.59,0.10,9.51
-1.51,-1.13,-15.88,1.82,-0.29,9.32
-0.02,0.22,-15.70,1.89,-0.61,8.97
0.69,0.75,-15.58,1.96,-0.33,9.31
0.72,0.97,-15.44,1.73,0.00,9.44
0.28,1.00,-15.33,1.74,0.11,9.63
0.22,1.22,-15.10,1.80,-0.42,9.40
0.86,1.63,-14.98,2.02,-0.49,9.43
1.33,2.07,-14.89,2.08,-0.29,9.53
1.26,2.38,-14.76,2.03,0.07,9.61
0.22,2.56,-14.56,1.98,0.17,9.81
-0.17,2.62,-14.45,1.88,-0.09,9.85
-0.15,2.57,-14.40,1.97,-0.32,9.98
0.08,2.39,-14.25,1.87,-0.32,10.04
0.01,1.69,-13.94,1.80,0.06,10.31
-0.44,1.32,-13.79,1.71,0.14,10.17
-0.94,1.13,-13.73,1.87,-0.04,10.19
-1.31,1.08,-13.63,1.76,-0.23,9.92
-0.75,1.02,-13.34,1.80,-0.32,9.92
-0.51,0.99,-13.18,1.71,-0.09,9.91
-0.78,1.12,-13.07,1.76,0.09,10.04
-1.55,1.27,-12.97,1.65,0.06,9.89
-1.48,1.72,-12.85,1.51,-0.48,9.65
-0.72,1.92,-12.70,1.44,-0.36,9.65
-0.23,2.05,-12.61,1.50,0.04,9.86
-0.88,2.08,-12.52,1.48,0.35,9.97
-2.62,2.17,-12.37,1.49,-0.28,9.74
-2.03,2.37,-12.23,1.43,-0.66,9.59
-0.89,2.47,-12.14,1.28,-0.53,9.51
-0.36,2.38,-11.99,1.26,-0.02,9.68
-1.89,2.12,-11.78,1.42,0.23,9.79
-2.28,2.17,-11.61,1.43,-0.31,9.50
-1.54,2.42,-11.45,1.49,-0.80,9.33
-0.23,2.58,-11.24,1.49,-0.77,9.37
0.43,2.81,-10.97,1.10,0.24,9.88
-0.54,2.34,-10.80,1.15,0.32,9.99
-1.10,2.01,-10.60,1.21,-0.16,9.88
-0.63,1.77,-10.40,1.38,-0.78,9.54
1.93,2.42,-10.00,1.36,-0.44,9.62
1.67,2.66,-9.78,1.36,0.30,10.02
0.46,2.75,-9.60,1.12,0.67,10.28
-0.87,2.50,-9.47,1.09,0.35,10.26
-0.49,2.33,-8.96,1.25,-0.82,9.92
0.71,2.34,-8.66,1.07,-0.69,9.69
1.28,2.37,-8.49,1.16,-0.01,9.90
0.55,2.49,-8.31,1.22,0.59,10.03
-2.17,2.75,-7.92,1.27,-0.09,9.72
-1.79,2.96,-7.66,1.12,-0.72,9.44
-0.52,3.00,-7.41,1.06,-0.84,9.36
0.61,2.91,-7.17,0.96,-0.41,9.60
-0.50,2.25,-6.84,0.83,0.46,9.97
-1.61,1.91,-6.67,0.91,0.01,9.87
-1.45,1.82,-6.40,1.02,-0.67,9.57
-0.15,1.86,-6.10,1.05,-0.92,9.38
1.46,2.22,-5.64,0.74,0.27,9.69
0.15,2.12,-5.52,0.63,0.68,9.90
-1.27,1.94,-5.42,0.58,0.35,9.84
-1.73,1.72,-5.22,0.64,-0.46,9.63
0.95,1.71,-4.75,0.58,-0.71,9.47
1.67,1.61,-4.52,0.47,-0.10,9.62
0.90,1.35,-4.39,0.46,0.43,9.75
-0.25,1.33,-4.30,0.45,0.45,9.70
-0.62,1.34,-3.99,0.50,-0.66,9.18
0.65,1.42,-3.78,0.48,-0.82,9.12
1.73,1.50,-3.57,0.46,-0.42,9.17
1.81,1.56,-3.39,0.38,0.09,9.25
0.72,1.17,-3.06,0.39,0.01,8.95
0.85,1.34,-2.90,0.56,-0.34,9.02
1.39,2.04,-2.77,0.74,-0.51,9.35
1.76,2.70,-2.58,0.52,-0.32,9.69
1.40,2.34,-2.33,0.09,0.10,10.73
0.92,1.80,-2.24,0.18,0.00,10.98
0.82,1.46,-2.05,0.11,-0.25,10.78
1.05,1.17,-1.99,0.16,-0.37,10.51
1.13,1.34,-1.74,0.54,0.04,10.65
0.20,1.60,-1.68,0.36,0.19,10.71
-0.53,1.52,-1.51,0.22,0.09,10.71
-0.63,1.05,-1.31,0.19,-0.11,10.71
-0.46,0.66,-1.08,0.20,-0.18,10.33
-0.49,0.49,-0.94,0.28,-0.05,10.15
-0.92,0.40,-0.89,0.19,0.01,9.89
-1.34,0.47,-0.78,0.23,-0.08,9.65
-0.94,0.73,-0.53,0.20,-0.33,9.33
-0.51,0.72,-0.40,0.17,-0.23,9.26
-0.40,0.78,-0.25,0.30,-0.18,9.29
-0.54,1.05,-0.17,0.29,-0.18,9.22
-0.30,1.83,-0.05,0.43,-0.39,9.17
0.17,2.24,0.03,0.36,-0.25,9.26
0.47,2.49,0.14,0.19,0.04,9.39
0.06,2.47,0.15,0.08,0.24,9.65
-1.08,1.75,0.11,0.01,-0.33,9.75
-0.54,1.38,0.17,0.02,-0.60,9.81
0.39,1.03,0.22,-0.04,-0.44,9.86
0.76,0.60,0.25,-0.12,0.02,9.98
-1.07,-0.26,0.27,-0.05,0.34,10.16
-1.65,-0.43,0.27,-0.11,-0.16,9.84
-1.24,-0.55,0.34,-0.05,-0.59,9.63
-0.36,-0.33,0.40,0.06,-0.55,9.69
-0.77,-0.06,0.42,-0.16,0.30,9.86
-1.65,-0.03,0.37,-0.27,0.19,9.84
-2.11,-0.06,0.31,-0.17,-0.18,9.78
-1.79,0.00,0.35,-0.11,-0.48,9.71
-0.62,0.17,0.47,0.00,-0.28,9.86
-0.72,0.34,0.45,-0.14,-0.06,9.95
-1.24,0.41,0.37,-0.17,-0.02,9.97
-1.41,0.39,0.33,-0.16,-0.13,10.02
-0.85,0.01,0.26,-0.19,-0.32,10.03
-0.55,-0.23,0.31,0.02,-0.21,10.21
-0.77,-0.39,0.30,0.10,-0.09,10.36
-1.24,-0.43,0.32,0.02,-0.02,10.34
-1.53,-0.69,0.26,-0.15,-0.26,10.10
-1.23,-0.78,0.26,0.04,-0.24,10.16
-1.22,-0.69,0.26,0.28,-0.12,10.32
-1.61,-0.63,0.29,0.07,-0.04,10.12
-1.82,-1.02,0.36,0.12,-0.38,9.62
-1.25,-0.89,0.34,0.19,-0.44,9.40
-0.74,-0.57,0.39,0.22,-0.28,9.24
-0.70,-0.25,0.39,0.23,-0.02,9.21
-1.71,0.02,0.40,0.26,-0.10,9.11
-1.56,0.21,0.41,0.23,-0.49,8.88
-0.70,0.42,0.46,0.24,-0.68,8.86
0.16,0.64,0.45,0.23,-0.48,9.03
-0.26,1.00,0.43,0.28,0.15,9.75
-0.92,0.74,0.43,0.09,0.01,9.61
-0.98,0.44,0.44,0.09,-0.40,9.69
-0.34,0.40,0.45,0.25,-0.60,9.70
0.59,0.64,0.50,0.19,0.02,9.85
-0.09,0.51,0.55,0.10,0.19,9.76
-0.87,0.28,0.52,0.13,0.03,9.67
-0.71,0.47,0.57,0.35,-0.36,9.68
0.29,1.05,0.67,0.15,-0.24,9.68
0.28,1.25,0.72,0.14,0.16,10.03
-0.65,1.22,0.65,0.12,0.42,10.22
-1.85,1.13,0.68,-0.06,0.13,10.17
-2.03,0.57,0.58,-0.39,-0.99,9.49
-0.18,0.06,0.66,-0.36,-0.83,9.36
1.08,-0.68,0.76,-0.06,-0.46,9.60
1.31,-1.11,0.93,-0.02,0.13,9.61
-0.21,-1.30,1.26,-0.05,-0.11,9.21
-0.07,-1.02,1.27,-0.06,-0.66,9.15
0.93,-0.53,1.33,-0.19,-0.87,9.22
2.13,-0.21,1.40,-0.16,-0.47,9.67
1.62,-0.62,1.60,-0.26,0.45,10.19
0.51,-0.76,1.69,-0.07,0.12,10.09
0.25,-0.29,1.84,0.23,-0.49,9.94
1.11,0.52,1.99,0.16,-0.79,9.79
2.03,1.44,2.08,-0.14,0.18,10.20
1.00,1.34,2.04,-0.16,0.58,10.36
-0.19,1.10,2.12,-0.03,0.41,10.24
-0.56,0.95,2.23,0.07,-0.16,9.94
0.61,0.90,2.49,0.15,-0.58,9.45
0.96,1.12,2.49,0.01,-0.26,9.53
0.60,1.03,2.52,-0.06,0.17,9.71
-0.21,0.68,2.63,-0.15,0.26,9.95
-0.71,-0.24,2.77,-0.05,-0.36,9.91
-0.25,-0.38,2.93,0.01,-0.66,9.79
0.39,-0.32,3.00,-0.05,-0.60,9.60
0.96,-0.17,3.15,-0.01,-0.31,9.57
0.54,0.29,3.30,-0.01,0.21,9.65
0.02,0.68,3.37,0.02,0.10,9.68
-0.07,1.15,3.47,0.01,-0.20,9.62
0.17,1.56,3.59,-0.01,-0.47,9.75
1.02,1.85,3.83,-0.30,-0.24,9.85
1.20,1.68,3.88,-0.17,0.01,10.03
0.79,1.61,3.95,-0.20,0.17,9.98
0.27,1.77,4.02,-0.30,0.07,9.73
0.07,1.63,4.21,-0.16,-0.44,9.63
0.79,1.69,4.30,-0.29,-0.47,9.63
1.02,1.45,4.44,-0.32,-0.27,9.83
0.97,1.23,4.53,-0.46,0.02,9.90
0.08,0.64,4.76,-0.17,-0.09,9.85
0.32,0.63,4.83,-0.23,-0.48,9.16
1.18,0.61,5.12,-0.03,-0.65,8.78
2.19,1.37,5.34,0.24,-0.48,9.17
1.04,3.39,5.42,-0.33,0.17,9.85
0.71,3.41,5.46,-0.75,-0.13,10.24
1.29,2.52,5.64,-1.02,-0.49,10.53
2.02,1.50,5.70,-0.89,-0.38,10.90
1.13,0.74,5.93,-0.62,0.22,10.58
0.18,0.83,5.89,-0.67,-0.01,9.89
0.17,1.12,6.01,-0.36,-0.42,9.64
0.68,1.78,6.17,-0.39,-0.56,9.71
0.78,2.88,6.50,-0.20,0.40,10.94
-0.47,2.53,6.52,-0.92,0.27,10.62
-1.08,1.91,6.61,-1.07,-0.27,10.13
-0.67,1.47,6.73,-0.82,-0.71,9.86
1.17,1.68,7.03,-0.39,-0.02,9.79
0.65,1.67,7.18,-0.59,0.35,9.64
-0.44,1.51,7.27,-0.59,0.26,9.65
-1.23,1.31,7.36,-0.71,-0.14,9.52
0.07,0.76,7.59,-0.94,-0.65,9.40
0.83,0.31,7.69,-0.86,-0.41,9.50
1.11,0.24,7.83,-0.60,0.01,9.74
0.39,0.22,8.03,-0.58,0.21,9.65
-0.33,0.46,8.20,-0.88,-0.32,9.12
0.18,0.73,8.23,-0.79,-0.56,9.16
1.09,1.37,8.28,-0.61,-0.36,9.61
1.28,1.75,8.44,-0.70,0.01,9.95
0.03,1.26,8.61,-1.04,0.08,9.94
-0.15,1.00,8.68,-0.85,-0.34,9.71
0.50,1.20,8.76,-0.75,-0.55,9.55
1.21,1.66,8.82,-0.86,-0.37,9.58
0.47,1.23,8.88,-1.03,0.26,10.09
-0.27,0.68,8.95,-0.94,0.00,10.23
-0.34,0.30,9.09,-0.91,-0.44,10.06
0.26,0.11,9.22,-0.98,-0.58,9.81
0.97,-0.01,9.21,-1.05,-0.08,10.07
0.62,-0.24,9.29,-1.22,0.18,10.06
0.21,-0.57,9.31,-1.01,0.10,10.28
-0.17,-0.72,9.35,-0.82,-0.06,10.22
0.04,-0.20,9.54,-0.93,-0.37,10.20
0.04,-0.19,9.56,-1.02,-0.26,10.27
0.22,-0.15,9.60,-1.18,-0.13,10.27
0.00,-0.10,9.60,-0.84,0.06,10.29
-0.95,0.09,9.74,-0.95,-0.07,10.06
-1.15,0.41,9.72,-0.72,-0.30,10.20
-0.80,0.62,9.91,-1.06,-0.41,9.95
-0.38,0.50,9.93,-1.19,-0.21,9.83
-1.02,-0.02,10.05,-0.92,0.23,9.70
-1.68,-0.11,10.07,-0.81,-0.13,9.24
-1.31,0.10,10.17,-0.67,-0.52,8.97
-0.48,0.49,10.14,-0.85,-0.62,8.70
0.11,0.85,10.30,-0.70,0.09,9.52
-0.57,0.74,10.31,-0.86,0.20,9.87
-1.17,0.47,10.41,-0.95,-0.18,9.95
-0.91,0.15,10.49,-0.87,-0.65,9.77
1.06,0.27,10.62,-0.96,-0.24,9.50
0.72,0.42,10.54,-0.77,0.22,9.86
-0.32,0.70,10.59,-0.79,0.41,10.12
-1.20,0.69,10.65,-0.95,0.14,10.04
-0.79,-0.05,10.73,-1.22,-0.58,9.96
-0.15,-0.39,10.71,-1.07,-0.38,9.87
0.15,-0.30,10.85,-0.96,0.00,9.92
-0.29,-0.15,10.74,-1.16,0.17,9.60
-1.34,0.03,10.75,-0.89,-0.21,9.55
-1.01,0.37,10.73,-0.97,-0.46,9.46
-0.43,0.51,10.85,-1.03,-0.49,9.55
0.08,0.69,10.84,-1.16,-0.26,9.65
-0.68,0.79,10.87,-1.04,0.17,10.03
-1.27,0.94,10.82,-1.25,0.01,9.88
-1.40,0.80,10.81,-1.17,-0.30,9.84
-0.97,0.72,10.82,-1.01,-0.39,9.94
-0.77,0.69,10.88,-1.15,-0.07,9.99
-0.99,0.41,10.86,-1.29,0.11,10.03
-1.47,0.06,10.85,-1.21,0.03,10.06
-1.64,-0.15,10.80,-1.25,-0.23,10.02
-0.98,-0.43,10.81,-1.08,-0.40,10.04
-0.77,-0.70,10.90,-1.19,-0.19,9.92
-0.80,-0.84,10.96,-1.13,-0.06,9.86
-0.97,-0.82,10.98,-1.11,0.03,9.80
-1.50,-0.72,10.97,-1.10,-0.31,9.57
-1.25,-0.63,11.05,-0.99,-0.52,9.49
-0.52,-0.34,11.16,-0.94,-0.47,9.52
-0.14,-0.12,11.21,-1.02,-0.14,9.58
-1.08,-0.10,11.28,-1.24,0.16,9.60
-1.50,-0.30,11.25,-1.31,-0.09,9.40
-1.33,-0.39,11.24,-1.14,-0.43,9.32
-0.52,-0.43,11.32,-1.04,-0.55,9.23
0.07,-0.61,11.44,-1.13,0.15,9.53
-0.75,-0.88,11.44,-1.18,0.26,9.60
-1.50,-1.00,11.46,-1.13,-0.03,9.69
-1.36,-0.91,11.55,-1.06,-0.43,9.83
-0.35,-1.09,11.59,-1.30,-0.38,9.88
-0.29,-1.30,11.60,-1.17,-0.09,9.97
-0.65,-1.32,11.62,-1.08,0.16,10.01
-1.23,-1.11,11.68,-0.98,0.04,10.10
-1.15,-0.78,11.71,-1.12,-0.51,9.98
-0.50,-0.61,11.70,-1.09,-0.50,9.94
-0.12,-0.53,11.67,-1.14,-0.16,9.84
-0.17,-0.38,11.72,-1.10,0.10,9.88
-1.09,-0.24,11.64,-0.99,-0.20,9.65
-0.84,0.12,11.68,-0.88,-0.51,9.63
-0.34,0.20,11.73,-1.01,-0.62,9.68
0.31,0.17,11.68,-1.26,-0.44,9.81
0.10,-0.30,11.56,-1.10,0.04,10.04
-0.27,-0.44,11.54,-1.16,-0.04,9.75
-0.30,-0.59,11.58,-1.02,-0.40,9.48
0.44,-0.43,11.55,-0.87,-0.65,9.38
1.52,0.20,11.47,-1.13,-0.09,9.45
1.37,0.21,11.39,-1.33,0.21,9.59
0.71,-0.16,11.40,-1.19,0.19,9.62
0.17,-0.42,11.35,-1.15,-0.07,9.59
0.79,-0.25,11.53,-0.87,-0.55,9.24
1.52,0.07,11.54,-0.95,-0.30,9.36
1.43,0.38,11.51,-1.04,0.13,9.58
0.57,0.54,11.46,-1.31,0.40,9.87
-0.99,-0.17,11.47,-1.01,-0.41,10.19
-0.09,-0.20,11.58,-0.97,-0.73,10.05
0.89,-0.08,11.67,-1.02,-0.49,9.84
1.07,-0.12,11.75,-1.19,0.06,9.83
-0.80,-0.20,11.56,-1.20,0.26,10.22
-1.26,-0.43,11.63,-1.16,-0.22,10.10
-0.98,-0.86,11.71,-1.05,-0.64,9.88
0.07,-1.03,11.84,-0.97,-0.56,9.76
0.21,-0.57,11.90,-1.06,0.19,9.91
-0.61,-0.48,11.90,-1.41,0.24,9.81
-1.15,-0.82,11.83,-1.54,-0.16,9.64
-0.83,-1.16,11.85,-1.11,-0.55,9.79
0.75,-1.04,12.00,-1.14,-0.37,9.44
0.81,-0.94,11.98,-1.12,-0.12,9.46
0.68,-0.79,11.91,-1.44,0.07,9.24
0.34,-0.77,11.88,-1.25,0.03,9.37
0.48,-0.58,11.83,-1.16,-0.43,9.34
1.09,-0.48,11.87,-0.99,-0.44,9.52
1.54,-0.29,11.88,-1.22,-0.15,9.62
1.33,-0.22,11.83,-1.34,0.15,9.74
0.06,-0.29,11.73,-1.22,0.05,10.12
-0.22,-0.32,11.68,-1.11,-0.35,10.17
0.27,-0.35,11.70,-1.09,-0.49,10.07
0.90,-0.34,11.72,-1.15,-0.29,9.97
0.04,-0.52,11.61,-1.30,0.25,10.12
-0.76,-0.89,11.56,-1.36,-0.11,10.16
-0.69,-1.26,11.49,-1.20,-0.56,10.11
0.17,-1.38,11.53,-1.07,-0.67,10.01
1.02,-0.98,11.59,-0.90,0.13,10.13
0.19,-0.57,11.60,-0.95,0.43,10.41
-1.04,-0.05,11.57,-0.79,0.24,10.75
-1.65,0.48,11.56,-0.87,-0.23,10.74
-0.44,0.66,11.66,-1.01,-0.54,10.27
0.12,0.74,11.69,-0.79,-0.06,10.19
-0.40,1.03,11.67,-0.76,0.26,9.96
-1.44,1.30,11.57,-0.86,0.24,9.54
-1.37,1.35,11.58,-0.85,-0.56,9.01
-0.38,1.39,11.56,-0.77,-0.58,9.19
0.21,1.37,11.58,-0.94,-0.25,9.46
0.03,1.03,11.56,-1.22,0.12,9.62
-0.93,-0.50,11.51,-1.35,-0.10,9.53
-0.66,-0.92,11.53,-0.95,-0.40,9.49
-0.12,-0.84,11.57,-0.70,-0.47,9.54
0.22,-0.36,11.61,-0.96,-0.27,9.52
-0.33,-0.33,11.52,-1.41,0.08,9.66
-0.60,-0.46,11.48,-1.28,-0.06,9.79
-0.65,-0.54,11.49,-1.15,-0.28,9.69
-0.24,-0.40,11.51,-1.13,-0.46,9.50
0.75,-0.04,11.44,-1.14,-0.31,9.28
1.02,0.42,11.41,-1.20,-0.00,9.47
0.51,0.57,11.29,-1.25,0.13,9.64
-0.14,0.46,11.17,-1.34,-0.01,9.77
0.48,0.01,11.05,-1.18,-0.82,9.76
1.61,0.03,11.06,-1.20,-0.68,9.80
2.10,-0.01,10.99,-1.25,-0.18,9.85
1.65,-0.19,10.83,-1.28,0.25,10.12
0.33,-0.74,10.63,-1.36,-0.17,10.28
0.61,-1.07,10.57,-1.22,-0.39,10.26
1.27,-1.15,10.52,-1.08,-0.29,10.22
1.22,-1.23,10.40,-1.07,0.01,10.09
-0.20,-0.85,10.16,-1.09,0.10,10.03
-0.44,-0.63,10.02,-1.05,-0.13,9.99
-0.13,-0.44,9.92,-1.05,-0.30,10.02
-0.01,-0.38,9.82,-0.95,-0.26,9.95
-0.35,0.21,9.56,-0.94,-0.16,9.98
-0.41,0.41,9.46,-1.05,-0.22,10.06
-0.35,0.28,9.28,-1.04,-0.19,10.21
-0.35,-0.08,9.16,-1.13,-0.05,10.00
-0.63,-0.63,8.87,-0.76,-0.18,9.62
-0.58,-0.60,8.77,-0.78,-0.37,9.23
-0.12,-0.43,8.63,-0.65,-0.44,9.08
0.36,-0.20,8.49,-0.77,-0.33,9.01
0.49,-0.14,8.25,-0.66,-0.01,9.36
0.31,-0.04,8.09,-0.69,-0.03,9.49
0.21,-0.04,7.98,-0.71,-0.22,9.51
0.37,-0.08,7.81,-0.70,-0.38,9.64
0.77,0.15,7.49,-0.81,-0.21,9.90
0.67,0.09,7.29,-0.82,-0.12,10.03
0.56,-0.09,7.14,-0.75,-0.03,10.14
0.41,-0.26,6.99,-0.81,0.02,9.97
-0.01,-0.36,6.63,-0.62,-0.28,9.77
0.29,-0.24,6.43,-0.69,-0.39,9.58
0.76,-0.06,6.26,-0.63,-0.32,9.69
0.96,-0.01,6.14,-0.62,-0.09,9.76
0.17,0.08,5.81,-0.55,0.11,9.99
-0.25,0.19,5.65,-0.52,-0.09,9.92
-0.27,0.35,5.51,-0.52,-0.36,9.98
0.13,0.47,5.35,-0.58,-0.39,10.03
0.00,0.29,4.99,-0.64,0.21,10.43
-0.97,-0.06,4.82,-0.70,0.16,10.37
-1.58,-0.43,4.64,-0.69,-0.25,10.19
-1.17,-0.63,4.48,-0.61,-0.69,9.93
0.65,-0.65,4.23,-0.61,-0.27,9.98
0.47,-0.81,4.04,-0.72,0.23,10.32
-0.64,-1.22,3.80,-0.73,0.33,10.51
-1.48,-1.64,3.65,-0.74,-0.06,10.38
-0.33,-1.66,3.41,-0.44,-0.67,9.84
0.42,-1.44,3.30,-0.51,-0.35,9.60
0.50,-1.17,3.17,-0.50,0.13,9.55
-0.26,-0.88,2.96,-0.40,0.36,9.61
-1.52,-0.12,2.67,-0.27,-0.26,9.33
-1.09,0.15,2.54,-0.22,-0.64,9.26
-0.12,0.33,2.44,-0.31,-0.59,9.30
0.45,0.46,2.34,-0.43,-0.17,9.56
-1.02,0.01,1.99,-0.24,0.26,9.92
-1.63,-0.27,1.87,-0.25,-0.15,9.74
-1.50,-0.52,1.83,-0.20,-0.63,9.46
-0.46,-0.61,1.74,-0.17,-0.68,9.33
0.55,-0.70,1.56,-0.13,0.06,9.68
-0.25,-0.90,1.46,-0.28,0.19,9.70
-0.91,-1.18,1.35,-0.17,-0.10,9.62
-0.70,-1.23,1.24,0.07,-0.54,9.63
1.04,-0.55,1.16,-0.05,-0.44,9.72
1.04,-0.49,1.09,-0.17,-0.02,9.91
0.50,-0.61,0.97,-0.26,0.11,9.97
-0.03,-0.73,0.84,-0.09,-0.14,9.94
1.04,-0.35,0.78,0.09,-0.65,9.69
1.81,-0.06,0.69,0.00,-0.31,9.76
1.67,0.04,0.63,-0.05,0.15,10.01
0.71,0.03,0.52,0.00,0.22,10.24
0.04,-0.03,0.37,0.02,-0.52,10.09
0.83,-0.04,0.33,-0.04,-0.55,9.96
1.45,-0.12,0.28,-0.06,-0.15,10.01
1.07,-0.16,0.17,0.01,0.31,10.25
-1.53,-0.52,-0.06,-0.15,0.01,10.11
-1.44,-0.82,-0.15,-0.07,-0.63,9.81
-0.14,-0.96,-0.08,0.05,-0.82,9.60
1.07,-0.86,-0.09,-0.04,-0.36,9.54
-0.25,-1.03,-0.27,-0.16,0.58,9.64
-1.56,-1.11,-0.45,-0.13,0.17,9.48
-1.71,-0.97,-0.50,-0.01,-0.54,9.37
-0.56,-0.72,-0.42,0.12,-0.90,9.50
0.78,-0.54,-0.40,-0.24,0.06,10.29
-0.17,-0.81,-0.46,-0.38,0.46,10.38
-1.29,-1.09,-0.52,-0.37,0.26,10.19
-1.61,-1.21,-0.58,-0.15,-0.31,9.77
0.24,-0.47,-0.47,0.37,-0.60,9.38
0.70,0.02,-0.42,0.26,-0.12,9.27
0.23,0.45,-0.39,0.18,0.30,9.36
-0.58,0.79,-0.38,0.19,0.33,9.41
-0.92,1.16,-0.27,0.30,-0.40,9.27
-0.29,1.42,-0.20,0.29,-0.61,9.25
0.31,1.53,-0.13,0.30,-0.47,9.31
0.62,1.49,-0.06,0.26,-0.16,9.44
0.05,1.13,0.03,0.18,0.15,9.57
-0.37,0.99,0.09,0.24,-0.05,9.71
-0.46,0.92,0.15,0.21,-0.32,9.87
-0.13,0.72,0.18,0.04,-0.47,10.00
0.69,-0.30,0.36,-0.25,0.01,10.45
0.18,-0.84,0.41,-0.19,0.24,10.56
-0.59,-1.15,0.43,-0.06,0.12,10.57
-0.94,-1.16,0.46,-0.07,-0.26,10.36
0.16,-1.17,0.55,-0.30,-0.37,10.25
0.34,-1.15,0.59,-0.21,0.02,10.56
-0.53,-1.04,0.61,-0.13,0.24,10.77
-1.55,-0.85,0.60,-0.20,-0.01,10.67
-0.92,-0.50,0.69,-0.27,-0.67,10.18
-0.02,-0.35,0.69,-0.26,-0.41,10.08
0.14,-0.11,0.60,-0.24,0.10,10.12
-0.70,0.08,0.50,-0.24,0.33,10.05
-2.02,0.04,0.43,-0.05,-0.46,9.65
-1.22,0.06,0.45,-0.18,-0.81,9.27
0.15,-0.12,0.41,-0.31,-0.61,9.11
0.79,-0.46,0.30,-0.47,-0.05,9.21
-1.10,-1.34,-0.05,-0.29,0.30,9.25
-1.60,-1.71,-0.12,-0.15,-0.28,9.05
-1.21,-1.98,-0.15,-0.20,-0.66,8.65
0.04,-1.99,-0.09,0.02,-0.68,8.77
0.95,-1.31,-0.17,-0.15,-0.03,9.26
0.52,-1.12,-0.24,-0.35,0.28,9.45
-0.14,-1.23,-0.34,-0.18,0.15,9.75
-0.52,-1.26,-0.38,0.09,-0.30,9.71
0.95,-0.28,-0.23,0.30,-0.62,9.58
1.40,0.19,-0.28,0.10,-0.27,9.58
1.20,0.37,-0.30,0.00,0.18,9.77
0.55,0.56,-0.26,0.33,0.34,10.19
-0.69,0.70,-0.18,0.23,-0.20,10.12
-0.51,0.66,-0.17,0.31,-0.63,10.12
0.19,0.58,-0.10,0.29,-0.68,10.02
0.88,0.54,-0.01,0.35,-0.35,10.10
0.29,0.27,0.15,0.27,0.35,9.91
-0.44,0.14,0.15,0.41,0.14,9.83
-0.84,0.32,0.12,0.43,-0.33,9.64
-0.44,0.63,0.18,0.28,-0.73,9.43
1.36,0.63,0.36,0.10,-0.31,9.87
1.39,0.23,0.45,0.03,0.27,10.04
0.57,-0.15,0.49,0.01,0.47,10.13
-0.47,-0.27,0.44,0.01,0.15,9.87
0.09,0.26,0.42,0.12,-0.76,9.46
1.23,0.62,0.47,0.14,-0.53,9.52
1.56,0.88,0.53,0.08,0.09,9.88
0.65,0.96,0.50,-0.08,0.51,10.16
-1.11,0.43,0.40,-0.49,-0.22,9.95
-0.61,0.09,0.27,-0.44,-0.67,9.80
0.44,-0.11,0.24,-0.14,-0.59,9.84
0.95,-0.07,0.33,-0.01,-0.11,10.15
-0.81,-0.37,0.28,-0.32,0.28,10.13
-1.26,-0.49,0.26,-0.29,-0.09,10.10
-1.20,-0.52,0.14,-0.45,-0.47,9.95
-0.63,-0.47,0.09,-0.41,-0.55,9.96
-0.11,-0.78,0.05,-0.20,-0.08,9.90
-0.28,-0.93,0.18,-0.16,0.01,9.64
-0.53,-0.93,0.17,-0.12,-0.15,9.41
-0.50,-0.59,0.08,-0.02,-0.36,9.28
0.44,0.16,-0.04,-0.37,-0.49,9.10
1.02,0.04,-0.05,-0.09,-0.23,9.56
1.06,-0.14,0.01,0.05,0.09,9.83
0.53,-0.27,0.06,-0.06,0.12,9.65
0.40,-0.15,-0.03,-0.12,-0.57,9.34
1.22,0.07,-0.07,-0.11,-0.56,9.42
1.80,0.22,0.00,0.21,-0.19,10.02
1.54,0.18,0.06,0.07,0.27,10.28
-0.35,-0.38,0.07,0.13,0.10,10.46
-0.52,-0.28,0.07,0.04,-0.41,10.20
-0.13,-0.15,0.07,0.16,-0.62,10.23
0.48,0.04,0.07,0.23,-0.34,10.41
-0.30,-0.37,0.15,0.08,0.39,10.21
-1.10,-0.48,0.15,0.14,0.17,9.95
-1.48,-0.33,0.12,0.22,-0.32,9.62
-1.07,0.07,0.12,0.17,-0.72,9.45
0.70,0.05,0.21,0.12,-0.36,9.79
0.84,-0.22,0.21,-0.02,0.25,10.02
-0.06,-0.54,0.17,-0.16,0.48,9.89
-1.19,-0.88,0.14,-0.10,0.11,9.67
-0.59,-0.63,0.16,0.11,-0.94,9.17
0.68,-0.30,0.21,0.30,-0.81,9.43
1.55,-0.10,0.23,-0.02,-0.13,9.49
1.25,-0.20,0.23,-0.24,0.49,9.63
-1.16,-0.36,0.04,-0.20,-0.02,9.55
-1.00,-0.22,0.06,0.08,-0.82,9.57
0.53,-0.00,0.07,0.18,-1.12,9.53
2.22,0.10,0.20,0.01,-0.63,9.57
1.55,0.11,0.18,-0.18,0.67,9.96
-0.15,0.13,0.11,-0.19,0.44,10.10
-1.18,-0.01,-0.01,-0.20,-0.23,9.92
-0.60,-0.29,-0.08,-0.17,-0.83,9.77
2.07,-0.89,0.15,0.01,-0.22,9.83
1.44,-0.90,0.12,-0.05,0.43,9.90
0.00,-0.61,0.04,-0.04,0.57,9.92
-1.05,-0.36,0.01,-0.14,0.08,9.73
0.23,0.07,0.03,0.31,-0.85,9.95
1.43,0.49,0.13,0.16,-0.38,10.04
1.19,0.71,0.16,0.06,0.27,10.20
-0.05,0.80,0.10,-0.00,0.45,10.27
-1.08,0.92,0.05,0.16,-0.54,9.77
0.03,1.23,0.04,0.31,-0.70,9.82
0.89,1.46,0.07,0.21,-0.30,9.86
0.67,1.42,0.11,0.15,0.22,10.12
-1.36,0.59,0.01,-0.18,-0.01,9.91
-1.16,0.24,0.02,0.07,-0.57,9.84
-0.10,0.17,0.03,0.24,-0.75,9.82
0.77,0.23,0.06,0.21,-0.38,9.90
-0.19,-0.23,0.10,-0.16,0.31,9.84
-0.79,-0.48,0.04,-0.13,-0.02,9.74
-0.65,-0.54,0.02,-0.03,-0.47,9.47
0.21,-0.47,0.04,0.10,-0.66,9.41
1.16,-0.03,0.09,-0.01,-0.12,9.62
0.87,-0.02,0.12,-0.13,0.20,9.69
0.37,-0.10,0.17,-0.04,0.15,9.84
-0.04,0.04,0.14,0.01,-0.08,9.95
0.11,0.51,0.19,-0.11,-0.46,10.04
0.45,0.28,0.18,-0.23,-0.28,10.07
0.68,-0.11,0.19,-0.33,0.08,9.94
0.23,-0.53,0.18,-0.25,0.31,9.88
-1.22,-0.58,0.16,0.07,-0.20,9.44
-0.91,-0.35,0.22,0.05,-0.64,9.16
0.14,-0.14,0.23,0.01,-0.62,9.19
1.01,0.03,0.21,-0.18,-0.08,9.53
-1.11,-0.52,0.04,-0.35,0.34,10.16
-1.80,-0.98,-0.03,-0.31,-0.36,10.12
-0.99,-1.31,-0.06,-0.27,-0.92,9.81
0.75,-1.49,0.10,-0.14,-0.80,9.69
0.89,-1.29,0.06,0.17,0.51,10.09
-0.77,-0.81,0.05,0.12,0.44,10.00
-1.62,-0.20,-0.01,-0.10,-0.21,9.72
-0.98,0.06,-0.06,-0.15,-0.72,9.57
1.06,0.20,0.07,0.22,-0.12,10.19
0.46,0.33,0.13,0.15,0.29,10.23
-0.70,0.35,0.09,-0.08,0.11,9.93
-1.21,0.35,-0.01,0.01,-0.45,9.64
1.07,1.00,0.05,0.20,-0.58,9.70
1.18,1.10,0.03,0.19,-0.07,9.96
0.20,0.90,0.04,0.36,0.15,10.35
-0.72,0.79,0.06,0.24,-0.14,10.16
0.61,0.65,0.13,0.09,-0.84,9.63
1.61,0.49,0.04,0.04,-0.42,9.55
1.56,0.46,0.07,0.25,0.09,9.81
0.74,0.37,0.06,0.25,0.31,9.81
-0.07,-0.18,0.15,0.10,-0.23,9.58
0.29,-0.24,0.14,0.09,-0.42,9.54
0.71,-0.08,0.21,-0.01,-0.38,9.62
0.11,0.01,0.19,-0.04,0.05,10.02
-0.32,-0.05,0.25,0.05,0.03,10.03
-0.63,-0.11,0.30,0.05,-0.15,9.88
-0.55,0.14,0.30,0.04,-0.42,9.68
-0.37,0.53,0.30,0.09,-0.56,9.59
0.15,1.12,0.24,-0.23,-0.20,9.87
-0.17,0.73,0.21,-0.13,0.03,10.11
-0.58,0.44,0.25,-0.11,-0.04,10.19
-1.02,0.28,0.19,-0.16,-0.34,10.02
0.07,-0.14,0.17,-0.25,-0.81,9.60
0.93,-0.39,0.13,-0.23,-0.50,9.63
1.18,-0.54,0.14,-0.24,-0.06,9.57
0.61,-0.77,0.11,-0.13,0.15,9.60
-0.32,-0.58,-0.01,-0.04,-0.45,9.47
0.25,-0.39,0.07,-0.15,-0.71,9.42
1.14,-0.39,0.10,-0.14,-0.60,9.63
1.57,-0.46,0.04,-0.18,-0.18,9.79
0.07,-0.17,-0.00,0.13,-0.07,9.99
-0.54,0.32,-0.04,-0.04,-0.49,9.78
-0.25,0.69,-0.07,-0.13,-0.95,9.76
0.58,0.81,-0.09,0.02,-0.99,10.10
1.01,0.56,-0.06,-0.11,-0.10,10.18
0.26,0.33,-0.11,-0.08,0.12,9.90
-0.28,0.21,-0.07,-0.10,-0.05,9.42
-0.47,0.30,-0.13,0.19,-0.36,9.22
0.39,0.98,-0.08,0.22,-0.23,9.32
-0.15,0.89,-0.10,0.10,-0.07,9.73
-0.63,0.49,-0.12,-0.05,-0.15,10.05
-0.71,-0.13,-0.04,-0.13,-0.49,10.24
0.70,-1.07,0.01,-0.12,-0.32,10.06
0.54,-1.19,0.04,0.18,-0.02,10.17
-0.15,-0.79,-0.02,0.34,0.11,10.11
-1.01,-0.22,0.07,0.30,-0.13,10.02
-0.90,0.60,0.14,0.20,-0.73,10.35
-0.46,0.87,0.18,0.01,-0.61,10.70
-0.83,0.84,0.16,-0.08,-0.35,10.97
-1.62,0.59,0.13,-0.23,-0.35,10.98
-1.71,-0.35,0.12,-0.10,-0.84,9.94
-0.70,-0.53,0.18,0.09,-0.74,9.67
-0.28,-0.51,0.10,-0.05,-0.30,9.25
-0.75,-0.52,0.08,0.05,0.04,9.03
-1.54,-0.26,0.00,-0.11,-0.43,8.56
-0.80,-0.15,0.02,-0.02,-0.76,8.60
0.42,-0.03,0.02,0.04,-0.74,8.96
0.91,-0.01,0.01,-0.05,-0.39,9.33
-0.03,-0.25,-0.04,-0.23,-0.26,9.82
-0.17,-0.42,-0.08,-0.12,-0.64,9.86
0.22,-0.27,-0.11,-0.06,-0.96,9.72
0.75,0.10,-0.11,0.08,-1.06,9.76
1.00,0.75,-0.19,-0.07,-0.44,10.19
0.44,0.58,-0.19,-0.03,-0.27,10.36
0.18,0.49,-0.16,0.04,-0.31,10.27
0.20,0.44,-0.18,-0.13,-0.41,9.84
0.27,0.71,-0.29,0.19,-0.52,9.98
0.40,0.68,-0.32,-0.03,-0.44,9.78
0.57,0.60,-0.23,0.14,-0.30,10.01
0.24,0.58,-0.20,0.35,-0.24,10.10
-0.66,1.21,-0.09,0.30,-0.70,9.92
-0.61,1.53,-0.11,0.18,-1.09,9.91
-0.10,1.73,-0.17,0.06,-1.18,9.97
0.46,1.83,-0.16,0.22,-0.93,10.21
-0.22,1.41,-0.09,-0.03,-0.38,9.81
-0.66,1.05,-0.09,0.14,-0.64,9.63
-0.15,1.07,-0.09,0.17,-0.78,9.32
0.69,1.20,-0.03,0.12,-0.59,9.13
0.32,0.96,-0.04,-0.03,0.15,9.27
-0.83,0.82,-0.08,-0.01,-0.01,9.31
-1.35,0.77,-0.06,0.08,-0.51,9.39
-0.77,0.73,-0.00,-0.17,-0.89,9.39
0.44,-0.04,0.00,-0.25,-0.49,9.93
-0.28,-0.19,0.00,-0.13,-0.22,10.22
-1.49,-0.24,-0.02,-0.31,-0.39,10.08
-1.84,-0.40,-0.04,-0.44,-0.86,9.79
-0.27,-0.49,0.02,-0.04,-0.82,9.66
-0.13,-0.32,0.07,-0.12,-0.42,9.61
-0.70,-0.17,0.02,-0.26,-0.12,9.55
-1.41,-0.16,-0.03,-0.13,-0.18,9.48
-0.97,0.19,0.02,-0.11,-0.53,9.32
-0.70,0.37,0.07,-0.02,-0.55,9.43
-0.68,0.53,0.05,0.06,-0.46,9.62
-0.83,0.82,0.06,0.08,-0.39,9.80
-1.55,0.88,-0.01,-0.27,-0.76,9.83
-1.20,0.61,-0.08,-0.17,-0.95,9.99
-0.74,0.43,-0.11,-0.09,-0.95,10.12
-0.71,0.05,-0.14,-0.19,-0.58,10.20
-0.91,-0.27,-0.23,-0.33,-0.53,10.09
-0.83,-0.67,-0.22,-0.16,-0.56,10.20
-0.59,-0.93,-0.19,-0.04,-0.57,10.24
-0.44,-1.09,-0.21,-0.10,-0.47,10.04
-0.72,-0.84,-0.15,0.17,-0.48,10.07
-0.98,-0.30,-0.21,0.07,-0.61,9.98
-0.94,0.20,-0.18,0.14,-0.73,10.11
-0.77,0.61,-0.12,0.26,-0.73,10.46
-1.60,1.66,-0.01,0.30,-0.78,10.89
-2.05,2.00,0.00,0.14,-0.95,10.65
-1.93,2.08,-0.04,-0.12,-1.06,10.23
-1.51,2.04,-0.10,-0.11,-1.01,9.99
-1.65,1.89,-0.12,0.35,-0.58,10.00
-2.11,1.62,-0.01,0.22,-0.56,9.63
-2.35,1.31,-0.04,0.21,-0.87,9.38
-2.14,1.22,-0.08,0.24,-1.13,9.17
-0.89,1.46,-0.02,0.07,-0.85,9.24
-0.96,1.23,-0.04,0.11,-0.64,9.54
-1.50,0.89,-0.00,0.09,-0.65,9.56
-1.82,0.70,0.08,0.19,-1.00,9.49
-1.23,1.24,0.08,-0.14,-1.36,9.16
-0.60,1.20,0.04,-0.35,-1.41,9.20
0.08,1.00,0.02,-0.34,-1.17,9.35
0.34,0.60,0.01,-0.24,-0.84,9.38
-0.39,0.19,0.06,-0.16,-0.87,9.06
-0.50,0.32,-0.01,-0.28,-1.15,8.80
-0.05,0.49,-0.06,-0.30,-1.20,8.72
0.53,0.58,-0.05,-0.29,-1.05,8.89
0.30,0.55,-0.06,-0.31,-0.74,9.61
-0.30,0.23,-0.09,-0.48,-1.01,9.61
-0.21,-0.07,-0.13,-0.53,-1.37,9.51
0.48,-0.25,-0.15,-0.47,-1.49,9.47
1.04,-0.48,-0.12,-0.27,-0.84,9.93
0.29,-0.70,-0.12,-0.36,-0.63,10.14
-0.65,-1.02,-0.17,-0.45,-0.84,10.14
-0.87,-1.44,-0.21,-0.55,-1.25,9.82
0.73,-1.80,-0.10,-0.19,-1.08,9.81
0.52,-1.75,-0.16,-0.16,-0.64,9.78
-0.33,-1.68,-0.16,-0.16,-0.61,9.63
-0.83,-1.54,-0.09,-0.16,-0.97,9.44
0.40,-0.82,-0.12,0.04,-1.37,9.43
0.91,-0.35,-0.10,0.05,-1.06,9.58
0.49,-0.02,-0.06,0.02,-0.82,9.80
-0.31,0.23,-0.13,0.03,-0.93,10.05
-0.20,0.62,-0.10,0.12,-1.45,10.35
0.43,0.71,-0.09,0.06,-1.30,10.45
0.34,0.69,-0.09,0.10,-0.99,10.60
-0.24,0.74,-0.16,0.15,-0.82,10.65
-0.97,0.57,-0.13,0.16,-1.21,10.35
-0.54,0.52,-0.14,0.11,-1.23,10.12
-0.28,0.31,-0.11,0.19,-1.14,10.06
-0.39,0.21,-0.09,0.33,-1.02,10.16
-1.07,0.09,-0.01,0.23,-1.20,9.83
-0.92,0.19,-0.03,0.15,-1.44,9.64
-0.40,0.29,0.01,0.05,-1.46,9.53
-0.13,0.22,0.01,0.05,-1.24,9.71
-0.71,-0.12,-0.04,-0.01,-0.91,9.77
-1.21,-0.36,-0.00,-0.12,-1.09,9.55
-1.21,-0.47,0.01,-0.14,-1.37,9.29
-0.76,-0.45,-0.00,-0.04,-1.47,9.38
-0.46,-0.41,-0.01,-0.32,-0.99,9.66
-1.05,-0.74,-0.01,-0.30,-0.88,9.90
-1.69,-0.99,-0.00,-0.26,-1.08,9.77
-1.86,-0.96,0.00,-0.16,-1.43,9.59
-0.69,-0.38,0.03,-0.32,-1.58,9.50
-0.37,-0.31,-0.00,-0.24,-1.22,9.83
-0.57,-0.21,0.01,-0.16,-0.83,10.07
-1.51,-0.23,0.03,-0.28,-0.81,9.90
-2.04,-0.23,-0.04,-0.15,-1.69,9.74
-1.30,-0.10,0.01,-0.08,-1.77,9.68
-0.68,-0.01,0.04,-0.04,-1.56,9.71
-0.64,0.01,0.05,0.03,-1.25,9.71
-1.31,0.10,0.02,-0.05,-1.38,9.76
-1.41,0.16,-0.01,-0.05,-1.73,9.82
-0.93,0.03,-0.03,-0.11,-1.92,9.76
-0.22,-0.19,-0.00,-0.05,-1.81,9.78
-0.38,-0.24,-0.01,0.03,-1.25,9.83
-0.94,-0.32,-0.06,-0.18,-1.36,9.70
-0.95,-0.47,-0.11,-0.26,-1.66,9.73
-0.49,-0.66,-0.20,-0.26,-1.86,9.78
0.14,-1.19,-0.26,-0.14,-1.47,9.66
-0.07,-1.28,-0.29,-0.13,-1.37,9.62
-0.45,-1.41,-0.33,-0.19,-1.50,9.56
-0.45,-1.51,-0.32,-0.29,-1.74,9.57
0.17,-1.56,-0.33,-0.08,-1.76,9.62
0.04,-1.34,-0.33,-0.03,-1.77,9.61
0.04,-1.12,-0.27,-0.06,-1.86,9.53
0.35,-0.98,-0.24,-0.02,-1.87,9.64
0.51,-0.41,-0.15,0.00,-1.59,9.72
0.14,-0.24,-0.12,-0.06,-1.53,9.66
-0.15,-0.16,-0.13,-0.04,-1.68,9.65
-0.28,-0.18,-0.17,0.02,-1.87,9.60
0.32,0.10,-0.08,0.22,-1.86,9.54
0.30,0.17,-0.02,0.14,-1.66,9.54
-0.08,0.13,0.01,0.10,-1.66,9.74
-0.42,0.12,0.01,0.10,-1.86,9.96
-0.51,-0.17,-0.00,0.06,-2.11,10.24
-0.27,-0.37,-0.01,0.06,-2.11,10.22
-0.17,-0.60,0.04,0.10,-2.07,10.19
-0.17,-0.64,0.06,0.15,-1.95,10.12
-0.50,-0.71,0.07,0.01,-1.98,10.01
-0.57,-0.77,0.02,-0.04,-2.09,9.90
-0.45,-0.77,-0.00,-0.01,-2.16,9.83
-0.31,-0.61,0.00,0.02,-2.16,9.82
-0.10,-0.49,-0.04,-0.02,-2.19,9.69
-0.11,-0.42,-0.06,-0.07,-2.17,9.68
-0.09,-0.26,-0.05,-0.19,-2.21,9.59
-0.44,-0.37,-0.07,-0.18,-2.26,9.62
-0.62,-0.52,-0.15,-0.18,-2.53,9.61
-0.54,-0.56,-0.16,-0.08,-2.64,9.54
-0.22,-0.50,-0.13,-0.14,-2.69,9.46
-0.07,-0.57,-0.17,-0.09,-2.75,9.39
0.65,-0.32,-0.17,-0.12,-2.66,9.45
0.70,-0.31,-0.17,-0.11,-2.50,9.45
0.51,-0.33,-0.18,-0.07,-2.41,9.57
0.23,-0.28,-0.13,-0.01,-2.49,9.59
0.49,-0.05,-0.13,-0.06,-2.73,9.59
0.64,-0.06,-0.12,-0.11,-2.69,9.70
0.59,-0.15,-0.15,-0.09,-2.57,9.89
0.27,-0.30,-0.12,-0.11,-2.56,10.02
-0.14,-0.99,-0.08,-0.10,-2.87,9.88
0.02,-1.19,-0.05,-0.15,-2.88,9.85
0.12,-1.17,-0.10,-0.09,-2.77,9.84
0.04,-1.22,-0.10,-0.11,-2.75,9.80
-0.04,-1.31,-0.11,0.11,-2.76,9.96
-0.21,-1.36,-0.02,0.05,-2.76,9.71
-0.10,-1.16,0.04,0.04,-2.81,9.57
0.13,-0.83,0.08,0.06,-2.83,9.60
0.15,-0.40,-0.06,-0.12,-2.72,9.71
-0.05,-0.48,-0.07,-0.07,-2.76,9.60
-0.10,-0.53,-0.09,0.10,-2.83,9.49
-0.04,-0.32,-0.03,0.20,-2.88,9.40
0.46,0.35,-0.01,0.01,-3.07,9.42
0.76,0.31,-0.05,-0.07,-3.08,9.58
1.03,0.21,-0.11,0.00,-2.97,9.78
1.03,0.16,-0.13,0.13,-2.83,9.72
0.93,0.30,-0.09,0.17,-2.70,9.68
0.91,0.30,-0.07,0.00,-2.78,9.84
1.01,0.13,-0.08,-0.01,-2.84,10.11
1.10,-0.10,-0.05,0.06,-2.76,10.21
0.68,-0.19,-0.04,0.12,-2.54,9.93
0.38,-0.07,-0.03,0.17,-2.64,10.04
0.31,-0.04,0.02,0.02,-2.84,10.14
0.45,-0.15,0.04,-0.10,-2.94,10.19
0.45,-0.37,0.11,0.09,-2.73,9.98
0.18,-0.14,0.11,0.20,-2.65,9.76
-0.04,0.19,0.14,0.14,-2.77,9.78
-0.01,0.36,0.10,-0.03,-2.91,9.85
0.51,0.22,0.18,-0.08,-2.74,9.76
0.46,0.23,0.17,0.09,-2.53,9.57
0.16,0.51,0.17,0.24,-2.52,9.50
-0.02,0.85,0.15,0.11,-2.65,9.47
0.50,0.84,0.12,-0.25,-2.81,9.68
0.58,0.47,0.10,-0.12,-2.61,9.77
0.35,0.41,0.08,0.08,-2.45,9.67
-0.13,0.51,0.05,0.11,-2.52,9.54
0.05,0.57,-0.00,-0.21,-2.88,9.75
0.42,0.25,-0.04,-0.34,-2.71,9.81
0.39,-0.17,-0.03,-0.20,-2.42,9.78
-0.17,-0.39,-0.06,-0.02,-2.28,9.68
-0.56,-0.20,-0.07,-0.11,-2.68,9.60
-0.10,-0.40,-0.09,-0.29,-2.82,9.56
0.50,-0.59,-0.08,-0.24,-2.62,9.58
0.58,-0.62,-0.06,-0.03,-2.31,9.67
-0.29,-0.31,-0.08,-0.09,-2.43,9.73
-0.28,-0.37,-0.04,-0.21,-2.81,9.73
0.30,-0.36,-0.00,-0.14,-3.01,9.80
0.97,-0.24,0.04,0.05,-2.83,9.82
0.77,0.19,0.06,0.01,-2.27,9.88
0.17,0.24,0.05,-0.08,-2.42,10.02
0.07,0.26,0.08,-0.11,-2.72,10.15
0.42,0.14,0.11,-0.04,-2.84,10.07
0.96,0.11,0.14,0.19,-2.33,9.82
0.61,0.25,0.15,0.12,-2.13,9.81
0.26,0.36,0.11,-0.09,-2.18,9.94
0.01,0.16,0.06,-0.10,-2.37,10.13
0.17,-0.33,0.07,-0.05,-2.40,9.81
0.14,-0.43,0.08,0.14,-2.34,9.59
0.14,-0.21,0.06,0.28,-2.28,9.65
0.06,0.10,0.05,0.13,-2.27,9.77
-0.05,-0.20,-0.04,-0.34,-2.40,9.75
0.02,-0.57,-0.08,-0.13,-2.38,9.57
0.05,-0.61,-0.08,0.19,-2.28,9.47
-0.01,-0.24,-0.03,0.32,-2.28,9.35
-0.03,0.16,-0.02,-0.06,-2.40,9.32
0.17,0.16,-0.03,-0.09,-2.46,9.47
0.35,0.10,-0.02,0.02,-2.38,9.60
0.28,0.11,0.04,0.10,-2.27,9.57
-0.09,0.41,0.08,0.18,-2.42,9.52
0.13,0.60,0.09,0.08,-2.59,9.66
0.48,0.61,0.12,-0.07,-2.57,9.79
0.70,0.48,0.14,-0.13,-2.36,9.92
0.03,0.15,0.13,0.03,-2.15,9.96
-0.18,0.15,0.11,-0.01,-2.35,9.85
0.04,0.21,0.13,0.03,-2.53,9.87
0.51,0.23,0.11,-0.08,-2.48,9.92
0.40,0.05,0.08,-0.06,-2.02,10.09
-0.19,-0.08,0.07,-0.07,-2.07,10.08
-0.60,-0.17,0.07,-0.09,-2.42,10.01
-0.43,-0.19,0.06,-0.11,-2.74,9.96
0.64,-0.23,0.01,-0.17,-2.50,9.91
0.37,-0.28,-0.01,-0.15,-2.15,9.88
-0.29,-0.30,-0.05,-0.17,-2.11,9.84
-0.83,-0.34,-0.11,-0.16,-2.38,9.81
-0.13,-0.32,-0.06,-0.08,-2.82,9.51
0.42,-0.12,-0.03,-0.01,-2.58,9.42
0.45,0.06,-0.04,-0.03,-2.27,9.47
0.01,0.20,-0.10,-0.09,-2.12,9.62
-0.58,-0.02,-0.06,-0.12,-2.58,9.63
-0.16,-0.06,-0.03,-0.05,-2.71,9.43
0.37,0.10,0.00,0.07,-2.62,9.31
0.55,0.32,-0.02,0.07,-2.40,9.38
0.06,0.26,-0.07,-0.14,-2.26,9.73
-0.17,-0.02,-0.09,-0.11,-2.41,9.74
-0.05,-0.17,-0.07,0.05,-2.54,9.69
0.18,-0.10,-0.05,0.16,-2.55,9.65
0.32,0.06,-0.07,-0.01,-2.41,9.79
0.18,-0.08,-0.05,0.02,-2.38,9.98
0.02,-0.25,-0.01,0.05,-2.40,10.01
-0.06,-0.33,0.01,0.13,-2.44,9.88
0.15,-0.10,0.06,0.15,-2.47,9.68
0.28,0.09,0.07,0.14,-2.42,9.90
0.26,0.18,0.11,0.10,-2.34,10.10
0.01,0.12,0.16,0.02,-2.31,10.08
-0.33,0.12,0.15,0.14,-2.47,9.82
-0.20,0.35,0.17,0.15,-2.58,9.77
0.00,0.57,0.18,0.06,-2.59,9.82
0.12,0.61,0.17,-0.02,-2.50,9.90
-0.25,0.36,0.14,-0.00,-2.35,9.76
-0.40,0.42,0.11,0.05,-2.42,9.65
-0.35,0.51,0.10,-0.03,-2.53,9.57
-0.23,0.47,0.07,-0.09,-2.62,9.62
0.08,0.21,0.01,-0.09,-2.47,9.61
-0.02,0.13,0.01,-0.01,-2.34,9.55
-0.23,0.17,0.04,0.01,-2.37,9.50
-0.38,0.23,-0.00,-0.06,-2.56,9.48
0.28,0.19,0.00,-0.13,-2.72,9.56
0.54,0.16,-0.00,-0.08,-2.51,9.60
0.40,0.22,-0.02,-0.02,-2.30,9.63
