angleSpeedx_y_z;lineAccx_y_z
-0.01,-0.06,0.04,0.06,-0.15,9.82
-0.01,-0.06,0.05,0.05,-0.15,9.82
-0.00,-0.04,0.05,0.05,-0.15,9.82
-0.02,-0.04,0.06,0.06,-0.16,9.81
-0.03,-0.03,0.05,0.07,-0.17,9.81
-0.01,-0.03,0.03,0.06,-0.17,9.80
0.01,-0.04,0.04,0.07,-0.17,9.80
0.01,-0.04,0.05,0.07,-0.15,9.79
0.01,-0.01,0.04,0.07,-0.14,9.79
-0.03,-0.01,0.03,0.07,-0.16,9.79
-0.04,-0.02,0.02,0.07,-0.19,9.79
0.05,0.01,0.05,0.08,-0.18,9.78
0.07,0.03,0.02,0.07,-0.15,9.79
0.01,0.03,0.03,0.07,-0.14,9.80
-0.05,-0.00,0.03,0.07,-0.16,9.80
-0.06,-0.00,0.03,0.08,-0.18,9.81
0.04,0.02,0.04,0.07,-0.18,9.80
0.07,0.05,0.04,0.07,-0.15,9.82
0.00,0.06,0.05,0.07,-0.14,9.84
-0.01,0.03,0.06,0.06,-0.22,9.82
0.11,0.02,0.07,0.06,-0.20,9.81
0.10,0.03,0.06,0.04,-0.16,9.82
0.02,0.04,0.06,0.04,-0.11,9.84
-0.08,-0.02,0.05,0.03,-0.19,9.81
-0.04,-0.05,0.04,0.03,-0.22,9.78
0.03,-0.02,0.03,0.03,-0.20,9.78
0.10,0.00,0.04,0.04,-0.16,9.79
0.03,-0.02,0.05,0.03,-0.13,9.79
-0.09,-0.06,0.06,0.03,-0.17,9.78
-0.05,-0.05,0.03,0.04,-0.20,9.77
0.04,-0.01,0.05,0.05,-0.20,9.77
0.09,0.00,0.05,0.03,-0.14,9.80
0.03,-0.01,0.06,0.04,-0.14,9.82
-0.04,-0.03,0.05,0.03,-0.16,9.81
-0.04,-0.02,0.04,0.04,-0.20,9.80
0.08,-0.01,0.04,0.05,-0.19,9.81
0.08,-0.01,0.05,0.06,-0.16,9.84
0.02,-0.01,0.06,0.04,-0.14,9.83
-0.02,-0.03,0.05,0.04,-0.15,9.84
-0.04,-0.06,0.04,0.06,-0.18,9.82
0.05,-0.09,0.06,0.09,-0.19,9.81
0.07,-0.09,0.05,0.07,-0.16,9.81
0.02,-0.07,0.05,0.06,-0.13,9.81
-0.05,-0.06,0.05,0.07,-0.16,9.82
-0.02,-0.04,0.05,0.07,-0.18,9.79
0.03,-0.01,0.04,0.08,-0.18,9.79
0.07,0.01,0.05,0.08,-0.16,9.79
-0.00,0.04,0.04,0.08,-0.13,9.81
-0.05,0.04,0.05,0.07,-0.16,9.80
-0.03,0.03,0.05,0.08,-0.19,9.80
0.03,0.05,0.04,0.08,-0.19,9.79
0.08,0.05,0.04,0.08,-0.16,9.80
0.01,0.03,0.05,0.07,-0.13,9.83
-0.04,0.01,0.04,0.06,-0.15,9.82
-0.05,0.00,0.05,0.05,-0.18,9.81
0.04,0.01,0.05,0.06,-0.18,9.80
0.05,-0.01,0.06,0.06,-0.14,9.81
0.01,-0.01,0.05,0.05,-0.12,9.81
-0.05,-0.03,0.03,0.04,-0.13,9.81
-0.07,-0.02,0.04,0.04,-0.17,9.79
-0.02,-0.00,0.06,0.04,-0.18,9.78
0.01,0.02,0.07,0.04,-0.18,9.78
-0.01,0.05,0.04,0.04,-0.15,9.79
-0.04,0.05,0.04,0.03,-0.15,9.80
-0.03,0.03,0.04,0.04,-0.19,9.80
0.02,0.03,0.04,0.04,-0.19,9.80
0.06,0.04,0.04,0.04,-0.19,9.79
0.03,-0.01,0.04,0.04,-0.17,9.82
0.01,-0.04,0.03,0.03,-0.17,9.83
0.01,-0.07,0.03,0.03,-0.19,9.83
0.03,-0.09,0.05,0.04,-0.20,9.81
0.05,-0.04,0.05,0.05,-0.17,9.81
-0.00,-0.08,0.03,0.05,-0.17,9.82
-0.05,-0.10,0.03,0.04,-0.17,9.81
-0.04,-0.09,0.04,0.04,-0.19,9.81
0.01,-0.10,0.04,0.05,-0.19,9.80
0.04,-0.03,0.03,0.06,-0.15,9.79
0.01,-0.02,0.06,0.07,-0.14,9.79
-0.03,-0.03,0.06,0.06,-0.16,9.79
-0.02,-0.01,0.03,0.06,-0.17,9.76
0.06,-0.01,0.03,0.08,-0.16,9.76
0.09,0.01,0.04,0.07,-0.16,9.77
0.23,0.01,0.05,0.07,-0.12,9.78
0.78,-0.19,0.04,0.00,0.15,9.63
0.94,-0.27,0.06,0.06,0.40,9.60
0.70,-0.25,0.05,0.13,0.54,9.57
0.22,-0.07,0.05,0.26,0.51,9.64
-0.18,0.25,0.06,0.28,0.25,9.69
0.11,0.56,0.09,0.03,-0.12,10.01
0.44,0.38,0.09,-0.09,-0.03,10.28
0.33,0.03,0.09,-0.09,0.16,10.46
-0.12,-0.29,0.09,-0.02,0.22,10.41
-0.44,-0.42,0.08,0.11,-0.11,9.85
0.02,-0.22,0.10,0.17,-0.08,9.69
0.35,-0.00,0.11,0.15,0.20,9.64
-0.30,0.09,0.10,0.02,0.58,9.70
-0.62,0.01,0.08,0.00,0.42,9.63
-0.40,-0.03,0.08,0.05,0.16,9.54
0.18,-0.01,0.09,0.06,0.08,9.48
0.59,0.05,0.09,0.06,0.20,9.54
0.26,0.18,0.06,0.04,0.39,9.77
0.09,0.14,0.05,0.00,0.26,9.80
0.26,0.09,0.02,-0.04,0.15,9.83
0.86,-0.08,0.01,-0.01,0.37,9.91
0.70,-0.17,0.02,0.03,0.57,9.92
0.48,-0.20,0.02,0.06,0.65,9.85
0.33,-0.19,0.04,0.09,0.64,9.78
0.31,0.01,0.04,0.14,0.61,9.80
0.34,0.10,0.05,0.07,0.60,9.88
0.36,0.15,0.06,0.04,0.61,9.99
0.12,0.07,0.06,0.02,0.62,10.07
-0.29,-0.09,0.05,0.02,0.54,10.05
-0.35,-0.15,0.08,0.04,0.41,9.97
-0.20,-0.15,0.08,0.08,0.34,9.92
0.06,-0.10,0.07,0.05,0.41,9.84
0.35,-0.23,0.06,0.01,0.74,9.73
0.33,-0.32,0.05,0.03,0.83,9.65
0.38,-0.30,0.06,0.10,0.87,9.56
0.47,-0.23,0.06,0.13,0.90,9.46
0.71,0.07,0.06,0.15,0.97,9.48
0.68,0.22,0.06,0.13,0.99,9.62
0.49,0.33,0.03,0.12,0.96,9.81
0.19,0.36,0.02,0.05,0.87,9.96
0.21,0.15,-0.00,-0.03,0.55,10.11
0.56,-0.00,-0.01,-0.01,0.57,10.11
0.84,-0.15,-0.01,0.02,0.76,10.10
0.84,-0.28,-0.00,0.06,0.97,10.02
0.63,-0.31,-0.01,0.10,1.08,9.90
0.49,-0.14,0.01,0.17,1.19,9.70
0.57,-0.04,0.03,0.14,1.25,9.65
0.67,-0.01,0.07,0.15,1.31,9.69
0.39,0.14,0.08,0.14,1.35,9.88
0.07,0.17,0.08,0.08,1.27,9.92
-0.12,0.14,0.08,0.04,1.10,9.90
0.02,0.11,0.10,0.06,0.93,9.90
0.71,0.10,0.13,0.08,1.02,9.95
0.74,0.12,0.13,0.04,1.24,9.95
0.58,0.04,0.12,-0.00,1.39,9.87
0.51,-0.06,0.11,0.04,1.44,9.78
0.62,-0.04,0.11,0.10,1.45,9.69
1.07,0.17,0.12,0.14,1.57,9.67
1.13,0.25,0.12,0.10,1.66,9.75
0.96,0.30,0.10,0.05,1.74,9.89
0.25,0.27,0.05,0.01,1.68,10.10
-0.10,0.16,0.04,-0.04,1.48,10.07
-0.15,0.06,0.01,-0.02,1.23,10.03
0.23,0.04,0.01,0.04,1.11,10.01
1.01,0.01,-0.02,-0.00,1.57,9.99
0.95,-0.15,-0.03,-0.03,1.84,9.89
0.67,-0.30,-0.08,0.04,1.90,9.77
0.54,-0.22,-0.12,0.18,1.90,9.65
0.63,0.02,-0.10,0.22,1.90,9.51
0.81,0.43,-0.03,0.17,1.97,9.48
0.79,0.55,-0.02,0.16,1.97,9.63
0.62,0.69,-0.01,0.15,1.94,9.81
0.26,0.56,-0.01,-0.00,1.70,9.96
0.48,0.36,-0.00,0.02,1.58,9.98
0.85,0.19,0.03,0.07,1.63,10.02
1.08,0.12,0.07,0.07,1.82,10.04
0.82,-0.10,0.07,0.04,2.09,9.84
0.86,-0.17,0.07,0.07,2.14,9.72
0.99,-0.13,0.09,0.17,2.18,9.66
1.07,0.01,0.12,0.25,2.25,9.72
0.98,0.17,0.16,0.16,2.33,9.73
0.24,0.25,0.18,0.01,2.31,9.92
-0.08,0.24,0.17,-0.03,2.14,9.97
-0.22,0.22,0.13,-0.07,1.89,10.00
0.03,0.14,0.03,-0.05,1.64,10.03
0.25,0.09,0.02,-0.08,1.70,10.01
0.36,0.01,-0.00,-0.06,1.85,9.99
0.40,-0.09,-0.03,-0.08,2.02,9.88
0.25,-0.04,-0.12,0.03,2.19,9.56
0.18,0.15,-0.14,0.17,2.19,9.50
0.08,0.45,-0.17,0.19,2.17,9.52
-0.00,0.74,-0.19,0.12,2.20,9.61
-0.06,0.84,-0.20,-0.01,2.18,9.69
-0.31,0.44,-0.25,-0.03,1.92,10.02
-0.30,0.28,-0.29,0.01,1.71,10.04
-0.13,0.14,-0.31,0.00,1.59,9.94
0.57,-0.08,-0.31,0.07,1.74,9.75
0.66,-0.08,-0.30,0.12,1.95,9.70
0.53,-0.00,-0.27,0.19,2.12,9.68
0.26,0.10,-0.25,0.24,2.17,9.72
0.13,0.20,-0.26,0.14,2.12,9.71
0.21,0.19,-0.22,0.14,2.17,9.82
0.24,0.17,-0.18,0.03,2.23,9.81
0.01,0.03,-0.17,0.08,2.20,9.91
-0.24,-0.07,-0.17,0.15,2.07,9.97
-0.31,-0.02,-0.17,0.07,1.66,9.83
-0.05,0.13,-0.17,0.07,1.65,9.95
0.08,0.12,-0.15,-0.03,1.74,10.06
-0.17,-0.27,-0.18,-0.07,2.05,10.22
-0.38,-0.56,-0.22,-0.17,1.97,9.95
-0.36,-0.65,-0.26,-0.06,1.89,9.78
-0.04,-0.53,-0.24,0.12,1.91,9.67
0.17,-0.13,-0.22,0.04,2.28,9.69
-0.28,-0.10,-0.24,0.01,2.31,9.77
-0.78,-0.11,-0.31,-0.05,2.20,9.86
-1.13,-0.11,-0.29,0.02,1.92,9.93
-0.70,-0.20,-0.32,-0.17,1.56,9.69
-0.33,-0.37,-0.32,0.08,1.53,9.84
0.02,-0.29,-0.32,0.11,1.68,9.88
0.09,-0.26,-0.32,-0.14,1.85,9.71
-0.29,-0.56,-0.37,-0.01,2.03,9.71
-0.28,-0.67,-0.37,-0.08,2.01,9.55
-0.26,-0.64,-0.38,0.15,2.01,9.63
-0.15,-0.43,-0.38,0.21,2.02,9.69
-0.52,-0.34,-0.37,0.03,2.02,9.75
-0.67,-0.38,-0.40,0.03,1.94,9.87
-0.80,-0.49,-0.38,0.05,1.81,9.94
-0.82,-0.51,-0.40,0.08,1.67,10.06
-0.73,-0.53,-0.38,0.03,1.58,9.97
-0.33,-0.68,-0.34,0.16,1.69,9.99
-0.37,-0.50,-0.31,0.27,1.85,10.00
-0.72,-0.29,-0.29,0.23,1.87,9.88
-0.75,-0.10,-0.32,0.10,1.81,9.65
-0.27,0.08,-0.30,0.35,1.83,9.73
-0.27,0.32,-0.26,0.25,1.95,9.73
-0.57,0.49,-0.20,0.18,1.86,9.71
-0.42,0.50,-0.19,0.18,1.49,9.68
0.08,0.61,-0.19,0.30,1.42,9.87
0.26,0.66,-0.16,0.26,1.53,9.93
0.11,0.61,-0.11,0.14,1.56,9.88
0.26,0.36,-0.04,0.26,1.50,9.97
0.57,0.37,-0.03,0.18,1.56,9.93
0.76,0.35,-0.03,0.11,1.72,9.81
0.70,0.29,-0.04,0.10,1.79,9.67
0.63,0.37,-0.09,0.21,1.83,9.69
0.54,0.71,0.04,0.30,1.76,9.75
0.57,0.74,0.09,0.10,1.75,9.80
0.36,0.58,0.07,-0.01,1.67,9.87
0.34,0.54,0.04,-0.07,1.55,10.01
0.38,0.40,-0.00,-0.12,1.58,10.06
0.18,0.14,-0.01,-0.07,1.69,10.10
-0.11,-0.11,0.04,0.03,1.70,10.13
-0.29,-0.23,0.06,-0.05,1.63,9.92
-0.12,-0.26,0.11,-0.01,1.63,9.72
-0.03,-0.13,0.04,0.01,1.82,9.80
-0.47,0.05,0.05,-0.10,1.92,9.80
-1.15,-0.00,0.03,-0.11,1.75,9.72
-0.74,0.12,0.08,0.03,1.27,9.55
-0.07,0.24,0.07,0.08,1.26,9.61
0.45,0.50,0.11,0.01,1.49,9.73
-0.25,0.38,-0.05,-0.15,1.65,9.86
-0.36,0.37,-0.05,-0.05,1.41,9.91
-0.07,0.31,-0.06,-0.02,1.21,9.89
0.60,0.11,-0.07,-0.06,1.25,9.81
0.82,-0.11,-0.08,0.26,1.62,10.08
0.53,0.09,-0.01,0.21,1.62,10.12
0.11,0.25,-0.05,0.06,1.49,10.06
-0.01,0.31,-0.03,0.08,1.35,10.10
0.14,0.37,-0.05,0.15,1.25,10.27
0.33,0.46,-0.03,0.10,1.25,10.32
0.21,0.34,-0.03,0.09,1.37,10.26
-0.01,0.20,-0.01,0.18,1.46,10.24
-0.31,0.35,0.04,0.10,1.45,9.89
-0.25,0.32,0.01,0.09,1.44,9.79
-0.20,0.33,0.03,0.33,1.49,9.93
-0.45,0.44,0.09,0.39,1.49,9.95
-0.56,0.49,0.17,-0.08,1.41,9.72
-0.65,0.13,0.14,0.13,1.23,9.79
-0.26,0.12,0.13,0.09,1.21,9.72
0.03,0.23,0.23,0.04,1.26,9.61
-0.20,-0.04,0.13,-0.17,1.32,9.45
-0.20,-0.24,0.15,-0.19,1.15,9.30
0.21,-0.26,0.06,-0.13,1.08,9.34
0.75,-0.37,0.12,0.01,1.13,9.38
1.37,-0.38,0.12,-0.17,1.50,9.38
1.16,-0.24,0.24,0.08,1.50,9.59
0.81,0.11,0.13,0.13,1.38,9.80
0.67,0.40,0.17,-0.09,1.26,9.63
1.21,0.63,0.02,-0.25,1.09,9.88
1.29,0.43,0.00,-0.33,1.16,9.87
1.44,0.14,-0.09,-0.21,1.29,10.04
1.52,-0.17,-0.10,-0.15,1.38,9.92
1.47,-0.54,-0.08,-0.10,1.38,9.78
1.81,-1.05,-0.09,-0.26,1.43,9.37
1.87,-1.16,-0.18,-0.04,1.57,9.62
1.66,-1.21,-0.20,-0.03,1.69,9.81
0.83,-1.85,-0.10,-0.19,1.36,9.76
0.87,-2.15,-0.01,0.13,1.08,9.87
1.50,-1.84,0.09,0.09,1.10,9.75
2.00,-1.46,0.14,-0.22,1.35,9.51
0.93,-1.21,-0.01,0.06,1.69,9.87
0.25,-0.94,-0.01,0.19,1.46,9.77
0.10,-0.50,0.08,0.41,1.17,9.75
0.66,-0.07,0.17,0.16,1.14,9.44
1.31,-0.04,0.21,-0.07,1.39,9.16
1.28,0.26,0.13,0.39,1.73,9.49
0.79,0.56,0.12,0.28,1.73,9.29
0.48,0.60,0.08,0.32,1.52,9.19
0.91,0.65,0.21,0.32,1.17,9.16
1.50,0.74,0.20,0.27,1.18,9.28
1.91,0.74,0.19,0.41,1.39,9.66
1.79,0.67,0.15,0.31,1.59,9.76
1.06,0.62,0.14,0.50,1.33,9.70
1.40,1.07,0.14,0.69,1.22,9.70
1.93,1.54,0.20,0.53,1.44,9.77
1.99,1.84,0.23,0.25,1.77,9.99
1.40,1.81,0.19,0.32,1.93,10.32
-0.22,2.00,0.12,0.15,1.90,10.68
-1.18,1.86,0.08,0.31,1.54,10.89
-1.38,1.69,0.07,0.07,1.37,10.80
-0.96,1.16,0.08,0.14,1.27,10.90
-1.03,0.99,0.12,-0.02,1.37,10.80
-1.31,0.62,0.08,-0.28,1.32,10.55
-1.41,0.17,-0.02,-0.16,1.24,10.51
-0.80,-0.23,-0.05,-0.31,1.28,9.82
-0.35,-0.46,0.01,-0.32,1.45,9.57
-0.17,-0.58,0.04,-0.00,1.50,9.63
-0.31,-0.40,0.05,0.11,1.49,9.47
-0.27,0.09,0.10,-0.15,1.39,9.30
0.24,0.49,-0.01,-0.25,1.27,9.46
0.53,0.48,0.04,-0.11,1.28,9.83
0.81,0.68,0.15,0.01,1.25,10.11
1.30,0.51,0.27,-0.22,1.34,10.04
1.45,0.60,0.24,0.04,1.50,10.21
1.21,0.89,0.24,-0.03,1.61,10.12
0.83,1.15,0.27,-0.01,1.65,10.21
0.22,0.83,0.20,0.04,1.59,10.30
0.21,0.74,0.24,0.08,1.58,10.43
0.03,0.59,0.23,-0.16,1.62,10.29
-0.23,0.10,0.25,-0.30,1.61,10.17
-0.61,-0.51,0.22,-0.07,1.45,10.22
-0.35,-0.96,0.24,-0.01,1.19,9.63
-0.07,-1.03,0.21,-0.03,1.18,9.49
0.11,-1.06,0.16,-0.01,1.26,9.29
0.27,-0.93,0.18,0.04,1.30,9.20
0.51,-0.30,0.18,0.10,1.38,9.42
0.68,-0.06,0.12,0.01,1.44,9.61
0.60,0.08,0.04,-0.24,1.54,9.65
0.33,-0.13,-0.02,-0.15,1.49,9.97
0.36,-0.40,-0.06,0.01,1.43,10.00
0.54,-0.42,0.00,0.07,1.49,10.04
0.40,-0.26,0.05,0.02,1.54,10.19
-0.30,-0.23,-0.07,-0.13,1.53,10.23
-1.03,0.01,-0.12,-0.15,1.33,10.94
-1.10,-0.42,-0.06,-0.34,1.28,11.01
-0.97,-1.14,-0.07,-0.25,1.35,11.17
-0.96,-1.79,-0.08,-0.15,1.46,10.88
-1.55,-1.65,-0.11,-0.13,1.60,10.06
-2.11,-1.63,-0.12,-0.06,1.41,9.59
-2.25,-1.79,-0.18,0.13,1.21,9.34
-0.56,-1.01,0.03,0.24,1.23,9.04
-0.17,-0.69,-0.06,-0.14,1.48,8.79
-0.27,-0.72,-0.04,-0.09,1.53,8.73
-0.60,-0.76,-0.04,0.26,1.37,8.83
-0.64,-0.35,-0.05,0.64,1.11,8.97
0.71,0.59,0.06,0.07,1.18,8.47
1.29,0.74,0.01,0.13,1.39,8.86
1.12,0.83,-0.03,0.24,1.49,9.19
0.80,0.85,-0.05,0.30,1.44,9.43
1.52,0.50,0.00,0.19,1.25,9.28
2.21,0.19,0.05,0.09,1.45,9.16
2.32,0.14,0.03,0.32,1.63,9.25
1.49,0.51,0.07,0.47,1.75,9.16
1.16,0.73,0.09,0.41,1.55,9.07
1.19,0.82,0.13,0.33,1.37,9.04
1.62,0.96,0.19,0.47,1.33,9.29
1.51,1.78,0.37,0.42,1.61,10.12
0.96,1.93,0.41,0.13,1.71,10.39
0.35,1.62,0.41,0.01,1.69,10.68
-0.03,1.21,0.40,-0.00,1.55,10.90
-0.05,0.67,0.45,-0.04,1.36,10.89
0.08,0.32,0.53,-0.04,1.50,10.85
-0.08,-0.02,0.53,-0.05,1.67,10.87
-0.66,-0.15,0.50,-0.16,1.66,10.78
-1.14,-0.24,0.40,-0.27,1.19,10.66
-0.74,-0.42,0.42,-0.35,1.15,10.62
-0.36,-0.62,0.40,-0.31,1.27,10.59
-0.17,-0.75,0.43,-0.25,1.42,10.38
-0.31,-0.46,0.22,-0.34,1.30,9.64
-0.08,-0.12,0.18,-0.24,1.25,9.36
0.26,0.28,0.07,-0.23,1.27,9.28
0.59,0.58,-0.04,-0.20,1.44,9.33
0.71,0.62,-0.03,-0.21,1.58,9.62
0.28,0.19,-0.17,-0.35,1.60,9.75
0.18,-0.05,-0.18,-0.26,1.35,9.82
0.51,-0.15,-0.32,-0.17,1.30,9.79
1.03,-0.26,-0.31,-0.02,1.79,10.10
0.34,-0.39,-0.33,-0.04,1.96,10.12
-0.65,-0.46,-0.29,0.01,1.91,10.22
-1.40,-0.46,-0.36,-0.01,1.62,10.06
-1.02,-0.54,-0.28,-0.01,1.28,9.72
-0.56,-0.72,-0.30,0.05,1.39,9.62
-0.57,-0.85,-0.27,0.10,1.67,9.65
-0.89,-0.85,-0.24,0.19,1.75,9.62
-1.39,-0.86,-0.20,0.20,1.60,9.44
-0.88,-0.70,-0.12,0.23,1.23,9.13
-0.26,-0.60,-0.06,0.25,1.34,9.20
0.11,-0.36,-0.01,0.25,1.55,9.35
-0.76,-0.07,0.07,0.31,1.55,9.66
-0.64,0.16,0.12,0.32,1.30,9.70
-0.13,0.40,0.18,0.32,1.26,9.84
0.38,0.67,0.20,0.22,1.48,9.91
-0.07,0.77,0.24,0.38,1.81,10.18
-0.65,1.10,0.15,0.34,1.78,10.01
-1.23,1.37,0.13,0.35,1.69,9.92
-1.31,1.70,0.17,0.38,1.51,9.97
-1.19,1.78,0.15,0.23,1.48,9.87
-1.36,1.65,0.12,0.31,1.73,10.53
-1.76,1.23,0.09,-0.14,1.69,10.33
-1.85,0.57,0.11,-0.16,1.46,10.30
-1.39,-0.26,0.05,-0.04,1.28,9.94
-0.89,-0.48,0.07,0.06,1.26,9.73
-0.40,-0.67,0.12,0.05,1.38,9.65
-0.21,-0.75,0.15,-0.08,1.54,9.47
-0.19,-0.53,0.07,-0.13,1.41,9.28
0.10,-0.21,0.04,-0.16,1.30,9.08
0.49,-0.11,0.05,-0.26,1.29,8.94
1.17,-0.01,0.05,-0.10,1.26,9.05
1.86,0.30,0.01,0.02,1.44,9.19
1.61,1.08,-0.10,-0.23,1.69,9.62
1.13,1.19,-0.16,-0.32,1.66,9.76
1.11,0.99,-0.13,-0.19,1.56,10.09
1.47,0.58,-0.12,-0.12,1.65,10.44
1.22,0.45,-0.13,-0.22,1.75,10.51
0.63,0.22,-0.22,-0.34,1.75,10.44
0.16,-0.12,-0.27,-0.24,1.64,10.45
0.20,-0.61,-0.21,-0.09,1.66,10.47
-0.10,-0.87,-0.20,0.00,1.69,10.49
-0.54,-0.93,-0.22,0.04,1.62,10.39
-0.67,-0.93,-0.23,-0.18,1.43,9.91
-0.24,-1.02,-0.19,-0.10,1.37,9.69
0.28,-0.95,-0.20,0.21,1.67,9.38
-0.23,-0.52,-0.15,0.38,1.61,9.21
-0.41,0.08,-0.10,0.34,1.36,8.94
0.86,0.62,-0.08,0.18,1.38,8.93
1.38,0.69,-0.12,0.14,1.56,9.34
1.25,0.53,-0.14,-0.02,1.72,9.50
0.80,0.17,-0.12,-0.05,1.62,9.77
1.55,-0.86,-0.15,-0.13,1.33,9.46
2.31,-1.23,-0.07,0.10,1.49,9.60
2.39,-1.25,-0.12,0.18,1.73,9.56
1.83,-1.01,-0.09,0.35,1.83,9.73
1.20,-0.48,-0.08,0.48,1.75,9.80
1.11,0.28,0.02,0.14,1.68,9.69
1.39,0.48,0.00,0.16,1.74,9.70
1.12,0.65,0.05,0.41,1.77,9.78
0.65,1.29,0.07,0.60,1.60,9.80
1.08,2.31,0.16,0.33,1.39,9.48
1.66,2.48,0.11,0.35,1.52,9.77
1.65,2.48,0.10,0.19,1.73,9.96
1.06,2.09,0.19,0.01,1.57,10.36
0.94,1.35,0.18,-0.18,1.31,10.19
1.58,0.75,0.13,-0.01,1.25,10.34
2.28,0.45,0.16,-0.03,1.46,10.33
1.67,-0.14,0.16,-0.05,1.81,10.47
1.37,-0.21,0.16,-0.09,1.78,10.37
1.16,-0.24,0.17,-0.06,1.66,10.39
1.18,-0.21,0.17,-0.17,1.61,10.42
1.23,-0.17,0.12,-0.27,1.63,10.42
0.85,-0.14,0.03,-0.38,1.64,10.41
0.74,-0.10,-0.01,-0.26,1.63,10.42
0.83,0.09,-0.03,-0.12,1.73,10.47
-0.16,0.42,-0.18,-0.37,1.64,10.05
-0.24,0.57,-0.18,-0.13,1.54,10.05
-0.16,0.61,-0.23,-0.09,1.47,9.89
0.02,0.68,-0.25,-0.08,1.60,9.92
-0.70,0.36,-0.26,-0.23,1.84,9.72
-1.05,0.04,-0.22,-0.02,1.61,9.73
-0.87,-0.03,-0.23,0.03,1.38,9.44
-0.52,-0.05,-0.23,0.01,1.47,9.17
-0.48,0.27,-0.21,0.15,1.56,9.17
-0.51,0.27,-0.16,0.03,1.53,9.03
-0.28,0.25,-0.19,0.10,1.41,9.28
0.01,0.04,-0.25,-0.14,1.45,9.17
0.26,-0.40,-0.13,0.24,1.49,9.92
0.30,-0.64,-0.10,-0.18,1.48,9.66
0.61,-1.07,0.00,-0.15,1.43,9.72
0.98,-1.24,-0.01,0.14,1.50,10.03
0.50,-0.81,0.12,0.30,1.56,9.95
0.55,-0.38,0.15,0.27,1.37,10.00
0.87,-0.02,0.20,0.20,1.38,9.87
1.11,0.48,0.27,0.30,1.52,10.11
1.18,1.06,0.29,0.23,1.69,10.13
0.16,1.57,0.25,0.07,1.56,10.08
-0.00,1.77,0.20,0.14,1.37,10.10
0.40,1.94,0.20,0.19,1.34,10.37
0.46,0.98,0.18,-0.32,1.67,10.61
0.05,0.10,0.17,-0.34,1.74,10.69
-0.51,-0.73,0.11,-0.40,1.52,10.48
-0.57,-1.31,0.03,-0.22,1.27,10.45
-0.07,-1.81,-0.00,-0.29,1.46,10.24
-0.15,-1.98,-0.07,-0.22,1.73,10.40
-0.62,-1.98,-0.03,-0.36,1.79,10.22
-1.44,-2.03,-0.16,-0.35,1.55,9.98
-1.42,-1.77,-0.20,-0.14,1.36,9.86
-0.77,-1.26,-0.26,-0.08,1.21,9.45
-0.32,-0.83,-0.22,-0.01,1.40,9.38
-0.34,-0.42,-0.22,-0.12,1.45,9.19
-1.17,0.19,-0.26,0.20,1.42,9.27
-1.35,0.56,-0.36,0.19,1.15,9.13
-0.99,0.70,-0.38,0.02,1.16,8.93
-0.55,0.56,-0.32,0.04,1.22,8.99
-0.70,-0.04,-0.37,0.21,1.44,9.04
-0.97,-0.01,-0.38,0.47,1.22,9.06
-0.57,0.21,-0.34,0.54,1.07,8.93
0.05,0.46,-0.20,0.52,1.06,8.99
0.63,0.78,-0.22,0.40,1.33,9.28
-0.07,1.07,-0.19,0.43,1.52,10.38
-0.73,0.97,-0.19,0.26,1.38,10.61
-0.81,0.53,-0.03,0.02,1.08,10.59
0.37,-0.22,-0.05,-0.05,0.90,10.52
0.77,-0.52,-0.03,-0.13,1.12,10.44
0.58,-0.69,-0.12,-0.02,1.34,10.52
0.11,-0.84,-0.09,0.08,1.35,10.40
-0.18,-0.36,-0.01,0.26,1.05,10.27
0.23,-0.01,0.01,-0.05,1.04,9.83
0.59,0.17,0.02,-0.02,1.24,9.80
0.43,0.35,0.02,0.01,1.41,9.83
-0.06,0.65,-0.14,-0.01,1.39,9.80
-0.01,0.86,-0.14,-0.07,1.01,9.83
0.36,0.84,-0.20,-0.21,0.91,10.03
0.62,0.65,-0.24,-0.24,0.91,10.20
1.54,-0.43,-0.47,-0.54,1.17,9.94
1.53,-1.09,-0.50,-0.36,1.38,9.86
0.97,-1.43,-0.56,-0.10,1.35,9.74
0.62,-1.23,-0.66,0.12,1.27,9.76
0.85,-1.28,-0.59,-0.31,1.15,9.48
1.04,-1.61,-0.65,-0.31,1.40,9.86
0.67,-1.83,-0.70,-0.20,1.48,9.95
0.28,-1.94,-0.70,-0.09,1.35,9.87
0.22,-1.93,-0.70,-0.07,1.11,9.42
1.00,-1.65,-0.78,0.18,1.15,8.76
1.26,-1.02,-0.78,0.36,1.28,8.76
0.83,-0.51,-0.75,0.48,1.37,8.80
0.25,0.56,-0.69,0.50,0.99,9.02
0.82,1.07,-0.62,0.48,0.83,9.17
1.65,1.42,-0.58,0.27,0.96,9.38
1.98,1.36,-0.55,0.28,1.26,9.74
1.25,1.14,-0.59,0.34,1.28,9.94
1.15,1.17,-0.57,0.52,1.16,10.02
1.50,1.20,-0.55,0.20,1.08,10.09
1.45,0.85,-0.53,0.22,1.15,10.36
1.19,0.47,-0.52,0.15,1.29,11.00
0.31,-0.94,-0.52,-0.16,1.25,11.33
0.25,-1.64,-0.48,-0.01,1.32,11.43
0.07,-1.92,-0.47,-0.15,1.36,11.08
-0.56,-1.99,-0.51,0.02,1.35,10.92
-1.50,-1.66,-0.55,-0.21,1.23,10.24
-1.86,-1.24,-0.52,0.16,1.25,10.35
-2.02,-0.67,-0.54,0.17,1.36,10.33
-2.64,0.08,-0.40,0.33,1.30,10.18
-3.00,0.64,-0.40,0.41,1.08,10.07
-2.95,1.42,-0.49,0.10,0.98,9.79
-2.65,1.86,-0.49,0.15,1.03,9.75
-2.71,1.91,-0.56,0.29,1.12,9.80
-2.79,1.59,-0.50,0.13,1.05,9.25
-2.38,1.27,-0.56,0.13,1.02,9.10
-2.05,0.78,-0.57,0.11,0.95,8.87
-1.70,0.51,-0.67,0.05,0.84,8.67
-0.84,0.20,-0.70,0.39,0.92,9.11
-0.61,0.38,-0.72,0.54,1.02,9.67
-0.54,0.64,-0.53,0.40,1.16,9.94
-0.39,-0.19,-0.61,-0.32,1.07,9.81
-0.13,-0.56,-0.60,0.37,0.96,10.08
0.03,0.01,-0.62,0.36,0.96,9.88
-0.03,0.74,-0.55,0.30,0.96,9.60
0.33,1.44,-0.58,-0.01,1.09,9.76
0.03,1.50,-0.55,0.12,1.22,10.02
-0.42,1.78,-0.53,0.15,1.17,10.44
-0.81,1.71,-0.56,-0.44,1.21,10.11
-1.48,0.19,-0.60,0.30,0.92,10.08
-1.17,0.41,-0.63,-0.12,0.92,9.42
-0.83,0.44,-0.55,-0.17,1.08,9.28
-1.10,0.20,-0.57,0.03,1.22,9.73
-2.31,-0.17,-0.64,-0.04,1.05,9.84
-1.81,-0.36,-0.65,-0.33,0.80,9.51
-1.00,-1.00,-0.74,-0.71,0.81,8.98
-0.57,-1.83,-0.74,-0.45,0.83,8.77
-0.37,-2.03,-0.77,0.16,0.84,8.94
0.23,-1.16,-0.62,0.14,0.88,8.88
0.42,-1.00,-0.70,-0.01,0.98,9.14
0.69,-0.93,-0.65,-0.27,1.20,9.32
0.57,-1.05,-0.67,-0.50,1.11,9.41
0.86,-1.28,-0.74,0.27,0.95,9.74
1.20,-0.94,-0.62,0.47,0.96,9.70
1.16,-0.39,-0.56,0.45,1.10,9.59
0.70,0.85,-0.52,0.48,1.18,9.86
0.13,1.50,-0.59,0.43,1.13,10.18
-0.02,2.06,-0.55,0.50,1.13,10.36
0.10,2.14,-0.44,0.50,1.07,10.39
-0.08,2.17,-0.42,0.62,0.94,9.97
-0.13,2.57,-0.35,0.55,0.92,9.92
-0.33,2.87,-0.43,0.26,0.94,9.97
-0.45,2.70,-0.51,0.30,1.08,10.42
-0.39,2.08,-0.43,0.23,1.24,10.78
-0.96,0.09,-0.35,-0.23,1.04,10.47
-0.94,-0.67,-0.39,-0.22,0.81,10.14
-0.64,-1.17,-0.47,-0.20,0.75,9.74
-0.02,-1.48,-0.52,-0.11,1.22,9.66
-0.60,-1.76,-0.54,-0.09,1.30,9.54
-1.02,-1.65,-0.48,0.09,1.03,9.58
-0.82,-0.88,-0.41,0.17,0.67,9.50
0.36,0.62,-0.42,-0.08,0.85,9.41
0.51,1.00,-0.51,-0.06,1.06,9.69
0.19,1.33,-0.58,-0.01,1.15,9.80
-0.09,1.59,-0.57,0.18,0.97,9.86
0.11,1.54,-0.58,-0.03,0.87,9.60
0.87,0.50,-0.55,-0.14,0.95,9.35
0.75,0.24,-0.62,0.27,0.90,9.67
0.48,0.30,-0.68,0.03,0.75,9.65
0.98,-0.47,-0.66,-0.18,0.71,10.27
1.24,-1.30,-0.68,-0.33,0.90,10.55
0.83,-2.20,-0.61,-0.24,1.06,10.67
0.35,-2.74,-0.60,-0.07,0.95,10.54
0.19,-2.51,-0.56,0.16,0.54,9.84
0.66,-1.53,-0.61,0.37,0.71,9.80
0.90,-0.63,-0.56,0.25,1.08,9.71
0.37,-0.21,-0.43,0.18,1.28,9.62
-0.31,0.32,-0.39,0.42,1.14,9.64
-0.82,2.32,-0.50,0.59,0.35,9.21
-0.12,3.20,-0.56,0.45,0.38,9.17
0.57,3.53,-0.55,0.10,0.63,9.31
-0.36,3.01,-0.64,0.23,0.66,10.21
-0.61,2.53,-0.56,-0.27,0.45,10.04
-0.47,1.54,-0.65,-0.33,0.28,9.93
-0.01,0.32,-0.77,-0.37,0.24,9.65
1.06,-0.92,-0.82,0.21,0.47,9.59
1.02,-1.19,-0.76,0.21,0.67,9.61
0.48,-1.38,-0.77,0.31,0.77,9.95
0.15,-1.21,-0.69,0.13,0.75,10.26
-0.01,-1.37,-0.64,-0.49,0.71,10.09
-0.66,-1.98,-0.73,0.12,0.44,10.71
-0.95,-1.47,-0.75,0.17,0.22,10.40
-1.02,-0.79,-0.61,0.19,-0.06,10.21
-0.32,0.30,-0.59,0.08,0.31,10.36
-0.59,0.82,-0.59,0.13,0.48,10.80
-1.61,1.13,-0.63,0.15,0.46,11.00
-2.55,1.10,-0.62,-0.21,0.29,10.71
-2.37,0.10,-0.66,0.22,-0.13,9.80
-1.28,0.17,-0.57,0.13,-0.17,9.18
-0.44,0.33,-0.58,0.21,0.08,8.84
-0.53,0.61,-0.63,0.35,0.38,8.92
-1.21,0.86,-0.76,0.25,0.40,8.92
-1.66,0.55,-0.72,0.07,-0.23,9.26
-1.09,0.09,-0.74,-0.03,-0.41,9.50
-0.29,-0.16,-0.72,-0.10,-0.39,9.70
0.17,-0.42,-0.79,-0.38,-0.23,9.40
0.48,-0.43,-0.84,-0.03,-0.09,9.44
0.45,-0.08,-0.87,0.65,0.02,9.79
0.21,0.67,-0.88,0.30,0.17,9.57
-0.11,1.02,-0.88,0.17,0.12,9.99
-0.08,0.91,-0.90,0.07,0.02,10.01
0.12,0.89,-0.84,-0.06,-0.03,10.05
0.26,0.74,-0.84,0.05,-0.06,10.06
0.60,0.31,-0.89,-0.09,0.02,9.80
0.00,-0.35,-0.95,0.15,0.09,9.98
-0.43,-0.31,-0.93,0.20,-0.03,10.07
-0.53,-0.45,-0.80,0.21,-0.14,10.27
-0.36,-1.32,-0.75,-0.12,-0.18,10.08
-0.24,-1.27,-0.75,0.30,-0.12,10.36
-0.32,-0.95,-0.74,0.27,0.07,10.15
-0.77,-0.59,-0.72,0.10,0.12,9.96
-0.58,-0.44,-0.70,-0.02,-0.04,9.19
0.04,-0.25,-0.66,0.24,-0.04,9.23
0.06,0.38,-0.69,0.59,0.12,9.35
-0.42,1.05,-0.71,0.22,0.21,9.15
-0.91,1.34,-0.81,0.05,0.06,9.17
-0.53,1.19,-0.87,-0.08,-0.30,9.62
0.01,1.09,-0.87,0.14,-0.23,10.02
0.00,0.85,-0.81,-0.07,-0.11,10.27
-0.37,-0.23,-1.06,-0.17,-0.19,9.98
-0.00,-0.59,-1.07,-0.03,-0.26,9.85
0.34,-0.72,-1.17,0.05,-0.04,9.69
0.39,-0.73,-1.09,0.12,0.26,9.83
-1.23,-0.47,-1.13,0.29,0.04,10.00
-1.07,-0.12,-1.01,0.04,-0.28,9.83
-0.63,0.01,-1.04,-0.03,-0.46,9.90
-0.01,-0.05,-1.09,0.04,-0.20,10.00
0.13,-0.02,-1.09,0.25,0.11,10.20
-1.68,0.10,-1.12,0.03,-0.15,9.96
-1.51,0.21,-1.06,0.33,-0.42,10.25
-1.27,0.31,-1.06,0.35,-0.45,10.37
-0.77,0.15,-1.01,-0.26,-0.20,9.98
-1.06,-0.51,-0.99,0.48,0.23,10.39
-1.82,-0.35,-1.00,0.41,0.12,9.86
-2.12,0.12,-0.93,0.15,-0.18,9.17
-1.23,-0.03,-0.97,0.07,-0.23,8.65
-0.80,0.14,-0.96,0.50,-0.25,9.13
-0.59,0.75,-0.87,0.56,-0.07,9.58
-0.63,0.90,-0.71,-0.25,-0.09,9.48
-1.13,-0.08,-0.83,-0.38,-0.39,9.42
0.63,-0.88,-0.96,-0.04,-0.68,9.09
1.37,-0.43,-0.98,0.51,-0.30,9.29
1.62,0.02,-0.94,0.23,0.16,9.15
0.74,-0.11,-1.00,-0.16,0.23,8.89
0.31,0.73,-0.99,0.53,-0.45,9.78
1.04,1.17,-0.97,0.08,-0.53,9.88
1.66,1.15,-0.95,-0.15,-0.28,10.46
1.53,-0.25,-1.13,-0.28,0.09,10.41
1.19,-0.64,-1.10,0.25,0.04,10.61
0.77,-0.45,-1.10,0.43,-0.14,10.33
0.83,-0.14,-1.02,0.55,-0.25,10.07
0.48,0.76,-0.87,0.25,0.13,10.20
-0.50,0.93,-0.97,0.04,0.09,10.39
-0.90,0.92,-0.99,0.15,0.02,10.63
-1.17,0.60,-1.02,0.02,-0.13,10.50
-1.02,0.16,-0.99,0.01,-0.30,10.19
-0.29,-0.07,-0.76,0.44,-0.18,9.79
-0.11,0.18,-0.71,0.34,0.04,9.36
-0.72,0.36,-0.73,0.19,0.04,9.18
-0.48,0.48,-0.88,0.10,-0.09,8.97
-0.40,0.44,-0.85,0.34,-0.34,9.27
0.01,0.40,-0.84,-0.09,-0.51,8.97
0.34,0.10,-0.86,-0.49,-0.50,8.79
1.93,-0.68,-0.93,-0.07,-0.31,9.54
2.14,-0.97,-1.03,-0.56,0.03,9.42
1.98,-1.18,-1.03,-0.19,0.15,9.93
0.98,-1.18,-1.15,0.09,0.00,10.53
0.30,-0.99,-1.15,-0.09,-0.04,10.53
0.93,-1.50,-1.12,-0.43,0.01,10.37
0.91,-1.88,-1.14,0.21,0.16,10.47
0.41,-1.43,-1.08,0.21,0.20,10.32
-1.59,0.28,-1.18,0.50,-0.08,10.43
-1.55,0.42,-1.09,0.22,-0.38,10.27
-0.74,0.65,-0.98,-0.05,-0.35,10.42
-0.76,0.72,-0.94,0.20,-0.05,10.97
-2.14,-0.16,-1.05,-0.02,0.03,10.65
-2.49,-0.55,-1.00,0.36,-0.33,10.37
-2.32,-0.56,-0.94,0.22,-0.49,9.75
-1.49,-0.68,-0.91,0.18,-0.27,9.25
-0.96,-0.83,-0.81,0.57,-0.04,9.37
-1.85,-0.38,-0.83,0.15,-0.12,8.74
-1.53,-0.24,-0.77,0.19,-0.38,8.60
-0.52,-0.34,-0.83,0.34,-0.48,8.68
0.99,0.19,-0.81,0.36,-0.16,8.99
0.73,0.61,-0.82,0.35,0.09,9.41
-0.09,0.53,-0.82,-0.28,0.06,9.24
-0.26,0.07,-0.91,-0.39,-0.29,9.21
1.28,-0.09,-0.80,0.37,-0.41,9.65
1.21,0.44,-0.81,0.22,-0.12,9.75
0.66,0.72,-0.82,0.12,0.02,9.87
0.37,0.91,-0.87,0.19,-0.00,10.24
0.39,0.99,-0.84,0.04,0.00,10.48
0.20,-0.02,-0.92,-0.16,0.11,10.51
-0.11,-0.52,-0.81,0.50,0.11,10.85
-0.92,-0.35,-0.77,0.18,-0.16,10.31
-0.57,-0.17,-0.68,0.27,-0.25,9.82
-0.70,-0.17,-0.70,0.39,-0.17,10.01
-0.81,0.05,-0.71,0.01,0.04,9.81
-1.15,0.03,-0.56,0.10,-0.04,10.10
-1.61,-0.99,-0.64,-0.14,-0.49,9.86
-0.82,-1.13,-0.55,0.13,-0.66,9.85
0.04,-0.84,-0.53,0.36,-0.39,9.82
0.35,-0.53,-0.34,0.14,0.05,9.56
-0.22,-0.43,-0.43,0.03,0.28,9.47
-0.88,0.25,-0.36,0.43,-0.19,9.27
-0.71,0.72,-0.40,0.31,-0.55,9.05
0.29,1.11,-0.36,0.08,-0.53,8.74
1.41,1.82,-0.32,0.34,0.04,9.63
0.80,2.07,-0.29,-0.15,0.14,9.74
-0.08,1.65,-0.42,-0.10,0.03,10.00
-0.04,1.10,-0.44,-0.10,-0.10,10.13
0.27,0.17,-0.40,-0.09,-0.35,9.63
0.64,0.08,-0.29,0.24,-0.16,9.55
0.45,0.13,-0.25,0.24,0.08,9.58
-0.29,0.33,-0.26,-0.04,0.18,9.46
-0.75,0.38,-0.21,0.01,0.04,9.60
-0.64,0.69,-0.15,0.22,-0.06,10.52
-1.16,0.99,-0.05,0.05,-0.15,10.94
-1.27,0.89,-0.03,-0.46,-0.31,10.71
-0.41,-0.47,0.02,-0.11,-0.27,10.22
-0.04,-0.24,0.02,0.09,-0.04,9.76
-0.56,0.13,0.14,0.45,0.03,9.57
-1.26,0.67,0.12,0.24,-0.11,9.35
-0.90,0.96,0.18,0.15,-0.45,9.61
-0.35,0.99,0.24,-0.04,-0.43,10.17
0.02,0.33,0.22,-0.75,-0.17,10.10
0.01,-0.75,0.27,-0.64,-0.06,10.27
-0.47,-1.60,0.23,0.06,-0.19,10.40
0.29,-1.16,0.43,-0.04,-0.60,9.15
0.98,-0.77,0.37,0.17,-0.44,9.20
1.48,-0.29,0.36,-0.13,-0.07,9.18
0.24,0.24,0.35,0.16,-0.04,9.92
0.41,0.39,0.48,-0.23,-0.46,9.77
0.95,0.17,0.47,-0.38,-0.81,9.51
2.13,-0.05,0.41,-0.34,-0.64,9.22
3.07,-0.01,0.29,0.01,0.24,9.46
1.77,0.31,0.26,0.13,0.37,9.75
0.49,0.46,0.31,-0.08,0.20,9.63
0.10,0.07,0.33,-0.39,-0.09,9.41
1.18,-0.81,0.39,-0.06,-0.57,9.62
1.88,-0.46,0.35,0.00,-0.24,9.84
1.57,-0.20,0.31,-0.09,0.06,9.92
0.75,-0.45,0.26,-0.29,0.09,9.91
0.53,-0.78,0.35,-0.22,-0.20,9.81
0.96,-0.03,0.47,0.50,-0.25,10.54
0.89,0.47,0.54,-0.03,-0.15,10.28
0.62,0.27,0.50,-0.28,-0.03,10.19
0.02,0.17,0.43,0.21,-0.21,10.36
0.19,0.62,0.49,0.31,-0.18,10.21
0.42,0.85,0.62,0.23,-0.13,10.17
0.05,0.72,0.64,-0.01,-0.02,10.03
-0.34,0.61,0.56,0.08,-0.11,9.98
-0.44,0.61,0.58,0.20,-0.18,10.03
-0.41,0.55,0.60,-0.01,-0.30,9.75
-0.17,0.39,0.58,-0.19,-0.37,9.49
0.37,0.47,0.65,0.23,-0.27,9.89
-0.44,0.75,0.64,-0.41,-0.01,9.76
-0.55,0.47,0.57,-0.32,-0.23,9.95
-0.50,0.09,0.50,-0.10,-0.38,10.07
0.25,0.78,0.64,0.40,-0.11,10.48
-0.24,1.21,0.69,-0.09,0.09,10.38
-1.09,1.03,0.57,-0.92,0.14,9.91
-1.53,0.37,0.41,-0.69,-0.10,9.90
-0.73,0.03,0.39,-0.03,-0.19,9.70
-0.73,0.04,0.48,-0.15,0.02,9.55
-1.32,-0.18,0.43,-0.29,0.04,9.49
-1.91,-0.39,0.33,-0.34,-0.19,9.41
-1.72,-0.32,0.26,-0.26,-0.41,9.58
-1.25,-0.11,0.28,-0.46,-0.24,10.23
-1.59,-1.04,0.26,-0.67,-0.16,10.03
-1.45,-2.00,0.28,-0.51,-0.29,9.89
-0.64,-2.25,0.21,-0.01,-0.53,9.41
0.14,-1.62,0.30,0.07,-0.18,9.63
-0.04,-1.37,0.32,-0.25,0.16,9.67
-0.74,-1.62,0.34,-0.32,0.19,9.83
-0.32,-1.59,0.38,-0.20,-0.54,9.74
0.82,-1.45,0.42,-0.15,-0.44,9.38
1.80,-1.14,0.51,0.19,-0.08,9.48
1.59,-0.53,0.46,0.29,0.29,9.29
1.00,0.49,0.53,0.43,0.41,9.26
-0.79,2.15,0.51,0.25,0.19,9.50
-1.15,2.37,0.49,-0.11,-0.12,9.54
-0.94,2.11,0.38,-0.24,-0.35,9.55
0.39,0.73,0.48,0.12,0.00,9.78
0.04,0.57,0.44,0.31,0.27,9.73
-0.54,0.55,0.49,0.17,0.19,9.19
-0.46,0.61,0.47,0.08,-0.08,8.87
0.71,0.72,0.44,0.09,0.09,9.26
0.94,0.80,0.40,0.14,0.34,9.88
0.43,0.55,0.42,-0.07,0.42,10.28
-0.18,-0.11,0.49,-0.60,0.23,9.99
0.07,-0.91,0.49,-0.41,-0.19,9.98
1.73,-0.96,0.55,-0.02,-0.01,9.81
1.69,-0.70,0.58,-0.04,0.45,9.80
0.87,-0.59,0.51,-0.03,0.60,9.85
-0.07,-0.01,0.59,0.20,-0.09,9.84
0.44,0.97,0.66,0.33,-0.17,10.40
0.81,1.64,0.64,-0.02,0.10,10.67
0.54,1.38,0.70,-0.39,0.37,10.89
-0.54,0.58,0.56,-0.31,0.41,10.86
-0.85,0.24,0.60,-0.04,0.19,10.49
-0.86,0.17,0.57,0.12,-0.00,10.22
-0.56,0.42,0.66,-0.05,0.03,9.98
-0.46,0.48,0.68,-0.17,0.16,10.08
-1.07,-0.26,0.69,-0.45,0.44,10.24
-1.19,-1.05,0.64,-0.51,0.23,9.70
-1.00,-1.68,0.74,-0.44,-0.01,9.06
0.31,-1.16,0.65,0.20,-0.30,8.13
1.32,-0.29,0.84,0.32,-0.09,7.96
1.69,0.52,0.88,-0.06,0.27,7.99
1.20,0.94,0.84,-0.08,0.56,8.32
0.61,1.92,0.96,0.23,0.17,9.54
0.90,2.35,1.06,-0.14,0.08,9.79
1.12,2.09,1.15,-0.68,0.02,10.02
1.37,1.26,1.10,-0.65,0.13,10.40
1.65,0.51,1.19,-0.16,0.24,10.75
0.88,0.14,1.52,-0.14,0.50,10.51
0.29,-0.22,1.71,-0.22,0.60,10.37
-0.48,-0.67,1.77,-0.13,0.44,10.47
-0.89,-0.63,2.05,-0.21,-0.02,10.65
-0.64,-0.79,2.19,-0.24,-0.03,10.82
-0.40,-1.21,2.36,-0.44,0.22,10.71
-0.68,-1.66,2.52,-0.24,0.38,10.52
-0.90,-1.02,2.97,0.02,-0.02,9.67
-0.64,-0.22,3.07,0.05,-0.12,9.29
0.04,0.71,3.24,-0.00,0.03,9.14
0.42,1.43,3.39,-0.06,0.18,9.20
0.23,2.03,3.50,-0.09,0.34,9.45
-0.21,2.37,3.85,-0.42,-0.04,9.44
0.36,1.98,3.97,-0.72,-0.14,9.17
1.18,1.56,4.11,-0.52,-0.15,9.14
1.95,1.42,4.31,-0.55,0.45,9.32
1.43,1.22,4.46,-0.77,0.67,9.51
0.39,0.51,4.51,-0.71,0.57,9.91
0.01,-0.09,4.61,-0.92,0.24,10.01
1.04,-1.16,5.08,-0.69,-0.05,10.02
1.51,-1.16,5.22,-0.73,0.31,9.98
1.06,-1.04,5.37,-0.69,0.48,9.89
0.29,-0.53,5.49,-0.53,0.49,10.08
-0.57,0.15,5.79,-1.06,0.32,10.08
-0.71,-0.01,5.96,-0.73,0.16,10.39
-0.71,-0.07,6.17,-0.77,-0.00,10.20
-0.50,-0.15,6.37,-1.03,-0.09,9.61
0.39,-0.03,6.61,-0.69,0.06,9.54
0.58,0.30,6.80,-0.81,0.35,9.52
0.11,0.46,6.98,-0.69,0.39,9.80
-0.28,0.50,7.08,-0.76,0.25,9.84
-0.07,0.23,7.44,-0.92,-0.29,9.83
0.63,0.25,7.61,-0.80,-0.26,9.81
1.45,0.30,7.87,-0.88,-0.07,9.64
1.48,0.43,7.97,-0.80,0.17,9.63
1.38,1.04,8.07,-0.76,0.43,9.76
0.59,1.46,8.24,-1.12,0.25,9.78
0.76,1.25,8.40,-1.16,0.03,9.94
1.02,0.95,8.50,-1.01,-0.14,9.98
1.46,1.16,8.80,-1.27,0.36,10.09
0.91,0.83,8.78,-1.42,0.47,10.00
0.39,0.38,8.85,-1.41,0.37,10.09
0.22,0.29,8.88,-1.25,0.09,9.91
1.18,0.83,9.17,-1.17,-0.22,9.67
1.60,0.93,9.14,-1.38,0.06,9.54
1.70,0.77,9.34,-1.34,0.47,9.85
1.09,0.55,9.40,-1.42,0.61,10.04
-0.54,0.62,9.60,-1.30,0.31,10.30
-0.56,0.47,9.63,-1.69,0.06,9.72
-0.28,0.10,9.72,-1.28,0.05,9.86
-0.03,0.13,9.94,-1.22,0.11,9.91
-0.15,0.42,9.86,-1.29,0.41,9.70
-1.33,0.45,10.14,-1.49,0.24,9.96
-1.49,0.42,10.04,-1.30,-0.05,9.99
-0.98,0.58,10.35,-1.32,-0.12,10.21
-0.54,0.48,10.37,-1.51,0.41,10.13
-1.06,0.07,10.60,-1.65,0.38,9.77
-1.42,-0.09,10.57,-1.55,0.03,9.28
-0.83,0.38,10.68,-1.08,-0.16,9.34
-0.22,0.98,10.83,-1.41,-0.20,9.24
0.33,1.18,10.91,-1.60,0.35,9.62
-0.23,0.91,10.94,-1.74,0.26,9.68
-0.30,1.01,10.85,-1.34,0.14,9.90
0.12,1.22,11.13,-1.50,-0.06,9.93
0.87,1.03,11.04,-1.62,0.03,9.82
0.95,0.82,11.17,-1.67,0.03,9.88
1.04,0.69,11.05,-1.76,0.14,9.78
1.00,0.50,11.26,-1.49,0.12,10.22
1.01,0.53,11.28,-1.55,0.25,10.19
0.85,0.77,11.47,-1.62,0.23,10.52
0.32,0.84,11.39,-1.52,0.23,10.68
-0.19,0.92,11.62,-1.88,0.17,10.40
-0.27,0.40,11.55,-2.00,0.17,9.81
0.22,0.04,11.62,-1.66,0.24,9.80
0.04,-0.07,11.62,-1.47,0.36,9.57
-0.61,0.14,11.67,-1.31,0.52,9.53
-1.44,0.26,11.81,-1.77,-0.01,8.95
-0.69,0.22,11.85,-1.59,-0.04,9.12
0.07,0.48,12.00,-1.68,0.00,9.25
-0.53,0.65,12.07,-1.68,0.35,9.38
-0.59,0.65,12.09,-1.73,0.01,9.27
-0.40,0.64,12.09,-1.67,-0.23,9.19
0.56,0.99,12.17,-1.67,-0.12,9.29
0.82,1.02,12.15,-1.94,0.56,9.51
-0.17,0.94,12.06,-1.97,0.43,9.67
-0.47,0.75,12.02,-1.85,0.07,9.76
0.32,0.48,12.11,-2.01,-0.23,9.79
1.01,0.13,12.02,-2.08,-0.09,9.84
0.66,-0.18,12.02,-2.02,0.56,10.49
-0.35,-0.30,11.87,-2.12,0.56,10.59
-1.19,-0.50,11.85,-1.86,0.29,10.89
-1.00,-0.31,11.85,-1.84,-0.13,10.67
-0.70,-0.00,11.89,-1.74,-0.01,10.71
-0.83,0.31,11.81,-1.71,0.31,10.73
-1.38,0.44,11.78,-1.87,0.45,10.78
-2.14,0.09,11.60,-1.79,0.08,10.08
-1.85,0.05,11.65,-1.61,-0.09,9.74
-1.24,0.28,11.63,-1.51,-0.09,9.49
-0.92,0.61,11.64,-1.55,0.06,9.69
-1.04,0.64,11.58,-1.90,0.18,9.40
-1.03,-0.13,11.46,-1.78,0.22,9.50
-0.96,-0.29,11.36,-1.76,0.13,9.23
-0.95,-0.53,11.41,-1.64,0.04,9.07
-0.50,-0.41,11.28,-1.79,0.01,8.77
-0.09,-0.36,11.35,-1.75,0.02,8.80
0.27,-0.25,11.30,-1.71,0.02,8.99
0.43,-0.21,11.27,-1.72,0.13,9.14
0.56,-0.03,11.16,-1.67,0.16,9.15
0.69,0.16,11.18,-1.68,0.09,9.22
0.87,0.35,11.11,-1.80,0.04,9.24
1.02,0.39,11.06,-1.66,0.17,9.61
1.00,0.41,11.11,-1.54,0.27,9.89
0.32,0.39,11.09,-1.86,0.21,9.98
0.29,0.05,11.04,-1.87,0.10,9.89
0.56,-0.01,11.02,-1.63,0.06,10.21
0.09,-0.13,10.97,-1.72,0.20,10.27
-0.01,-0.44,11.05,-1.72,0.17,10.39
-0.06,-0.84,10.98,-1.61,0.27,10.42
-0.09,-1.02,11.06,-1.65,0.36,10.49
-1.39,-1.23,10.98,-1.73,0.13,10.29
-1.01,-1.18,10.97,-1.72,-0.12,10.30
-0.65,-1.07,10.89,-1.49,-0.11,10.24
-0.34,-0.93,10.95,-1.56,0.21,10.01
-0.36,-0.73,10.93,-1.67,0.43,9.85
-1.40,-0.21,10.83,-1.60,-0.03,9.82
-1.19,0.05,10.72,-1.75,-0.32,9.57
-0.38,0.08,10.69,-1.76,-0.36,9.46
1.04,-0.47,10.61,-1.68,0.25,9.15
0.86,-0.53,10.57,-1.72,0.45,9.11
0.18,-0.49,10.44,-1.52,0.33,8.99
-0.05,-0.28,10.39,-1.56,0.05,8.91
0.92,-0.14,10.16,-1.72,-0.12,9.30
1.35,-0.44,10.13,-1.80,0.20,9.74
1.28,-0.86,10.02,-1.77,0.50,9.86
0.70,-1.00,10.00,-1.69,0.61,10.08
-0.19,-0.96,9.95,-1.65,0.38,10.05
-0.36,-0.77,9.87,-1.48,-0.23,10.00
0.18,-0.46,9.78,-1.51,-0.15,10.03
0.14,-0.18,9.74,-1.34,0.27,10.36
-1.03,-0.29,9.64,-1.64,0.34,10.44
-1.46,-0.50,9.63,-1.51,0.15,10.37
-1.25,-0.43,9.58,-1.38,-0.04,10.08
-0.88,-0.35,9.60,-1.30,0.02,10.03
-1.26,-0.76,9.44,-1.73,0.34,9.96
-1.54,-1.44,9.47,-1.69,0.24,9.80
-1.39,-1.91,9.36,-1.84,0.10,9.41
-1.32,-1.97,9.32,-1.31,0.07,9.54
-1.36,-1.58,9.40,-0.80,0.03,10.07
-1.38,-1.39,9.48,-1.73,0.00,9.73
-1.11,-1.49,9.40,-1.32,-0.01,10.09
-0.88,-1.23,9.36,-1.38,0.13,9.85
-1.49,-0.61,9.30,-1.43,0.10,9.72
-1.19,-0.67,9.22,-1.46,-0.17,9.58
-0.56,-0.75,9.24,-1.39,-0.29,9.43
0.25,-0.60,9.18,-1.46,-0.06,9.27
0.27,-0.94,9.01,-1.77,0.53,9.25
-0.58,-1.39,8.88,-1.50,0.34,9.28
-0.74,-1.35,8.89,-1.31,-0.16,9.34
-0.07,-1.14,8.87,-1.26,-0.33,9.19
0.91,-0.97,8.94,-1.24,-0.07,9.37
0.23,-1.18,8.72,-1.54,0.52,9.70
-0.64,-1.26,8.66,-1.48,0.30,9.89
-0.82,-1.32,8.52,-1.41,-0.01,9.91
0.14,-2.04,8.49,-1.63,-0.22,9.90
0.55,-2.35,8.45,-1.19,0.11,10.14
0.41,-2.18,8.49,-1.08,0.33,10.23
-0.22,-1.80,8.41,-1.24,0.33,10.01
-0.20,-1.30,8.24,-1.30,-0.15,9.79
0.40,-1.08,8.13,-1.18,-0.12,9.73
0.68,-0.83,8.13,-1.16,0.24,9.89
0.14,-0.87,8.06,-1.29,0.52,9.90
-0.88,-1.34,8.03,-1.23,0.41,9.95
-0.86,-1.57,7.92,-1.20,-0.22,9.37
-0.07,-1.55,7.98,-1.19,-0.19,9.24
0.43,-1.61,7.82,-1.22,0.08,9.24
0.33,-1.52,7.69,-1.12,0.40,9.43
-0.64,-1.33,7.54,-1.10,0.12,9.44
-0.26,-1.33,7.61,-1.10,-0.16,9.50
0.51,-1.16,7.59,-0.99,-0.18,9.71
0.40,-0.74,7.56,-1.35,0.46,10.40
-0.51,-1.00,7.39,-1.40,0.55,10.48
-1.18,-1.48,7.43,-1.39,0.42,10.28
-1.37,-1.77,7.38,-1.23,0.04,9.89
-0.50,-1.25,7.52,-0.73,-0.19,9.53
-0.18,-0.94,7.47,-1.14,0.09,9.39
-0.30,-0.87,7.51,-1.01,0.36,9.79
-0.71,-1.00,7.38,-1.20,0.36,9.81
-0.91,-1.24,7.30,-1.16,0.20,9.89
-0.60,-1.39,7.27,-1.18,-0.24,9.89
-0.12,-1.82,7.22,-1.32,-0.31,9.87
0.52,-2.16,7.08,-0.97,-0.22,10.18
0.50,-1.95,7.12,-1.09,0.42,10.41
-0.27,-1.79,7.08,-0.94,0.31,10.66
-0.70,-1.56,7.07,-0.93,0.04,10.53
-0.40,-1.32,7.03,-0.94,-0.07,10.18
-0.24,-1.31,7.00,-1.36,0.44,9.64
-0.53,-1.82,6.90,-1.31,0.48,9.26
-1.04,-2.14,6.92,-0.58,0.12,9.16
-0.96,-1.60,6.92,-0.51,-0.08,8.59
-0.40,-0.80,6.94,-0.88,-0.06,8.16
-0.05,-0.44,6.70,-1.21,0.34,8.91
-0.29,-0.78,6.61,-1.31,0.45,9.49
-1.04,-1.33,6.48,-1.01,0.28,10.23
-0.96,-2.97,6.39,-1.66,-0.38,9.33
-0.01,-3.86,6.23,-1.24,-0.40,9.12
1.34,-3.78,6.07,-0.88,-0.13,9.02
1.57,-3.37,5.96,-0.86,0.29,8.99
-0.08,-2.43,5.61,-0.97,0.62,9.57
-0.83,-2.44,5.40,-1.00,0.21,9.88
-0.52,-2.48,5.27,-1.18,-0.24,10.00
0.46,-2.57,5.14,-1.26,-0.31,10.25
0.93,-2.78,4.88,-1.24,0.07,10.48
-0.27,-3.47,4.41,-0.87,0.38,10.24
-0.72,-3.42,4.23,-0.60,0.00,10.01
-0.40,-3.18,4.07,-0.47,-0.38,9.95
0.75,-2.72,3.80,-0.63,-0.01,10.40
0.42,-3.05,3.63,-0.57,0.36,10.69
-0.17,-3.30,3.47,-0.57,0.41,10.58
-0.73,-3.40,3.34,-0.39,0.11,10.33
0.06,-2.62,2.99,-0.21,-0.20,9.78
0.70,-2.30,2.81,-0.57,0.03,9.44
0.71,-2.21,2.52,-0.64,0.44,9.48
-0.05,-2.33,2.29,-0.11,0.56,9.88
-0.93,-2.20,2.10,-0.12,0.31,9.90
-0.60,-2.08,1.80,-0.28,-0.32,9.53
0.20,-2.03,1.52,-0.59,-0.18,9.52
0.47,-2.18,1.31,-0.58,0.26,9.77
-0.77,-2.90,0.89,-0.49,0.53,10.02
-1.52,-3.75,0.74,-0.34,0.19,9.73
-1.42,-3.95,0.61,-0.07,-0.14,9.49
-0.80,-3.66,0.44,0.02,-0.14,9.14
-0.29,-3.12,0.11,-0.22,0.46,9.36
-1.13,-3.44,-0.09,-0.24,0.68,9.71
-1.92,-3.69,-0.25,-0.00,0.42,10.01
-2.13,-3.87,-0.33,0.06,-0.09,9.78
-1.68,-3.79,-0.43,0.03,-0.41,9.51
-0.42,-3.45,-0.69,0.30,0.08,9.40
-0.69,-2.91,-0.78,0.52,0.37,9.73
-1.22,-2.36,-0.89,0.48,0.38,9.84
-2.22,-2.06,-1.07,0.19,-0.10,10.44
-1.94,-2.64,-1.31,-0.04,-0.43,10.33
-0.89,-3.11,-1.33,0.24,-0.35,10.61
-0.35,-3.50,-1.39,0.15,-0.10,10.32
-0.92,-3.73,-1.68,0.72,0.12,9.96
-1.08,-3.42,-1.84,0.60,-0.18,9.37
-0.66,-2.95,-1.98,0.77,-0.25,9.38
-0.24,-2.46,-1.94,0.61,-0.18,9.76
-0.32,-2.35,-2.21,0.14,0.05,9.75
-0.80,-3.00,-2.33,0.23,0.04,10.10
-0.62,-3.30,-2.60,0.20,0.05,9.73
-0.67,-3.51,-2.56,0.69,0.12,9.82
-1.07,-2.80,-2.97,0.84,0.32,9.47
-1.66,-2.35,-2.89,0.84,0.26,9.54
-1.93,-2.19,-3.08,0.38,0.01,9.21
-1.60,-2.36,-3.35,0.71,-0.11,9.56
-0.76,-2.72,-3.52,0.32,-0.06,9.34
-1.15,-3.02,-3.79,0.78,-0.14,9.41
-0.87,-3.06,-3.80,0.60,-0.25,8.99
-0.07,-2.80,-4.11,0.76,-0.26,8.86
0.08,-2.48,-4.29,1.38,-0.02,9.28
-0.25,-1.93,-4.52,0.80,0.13,8.99
-0.36,-1.81,-4.73,1.22,0.01,9.33
-0.01,-1.44,-4.77,0.94,-0.13,9.16
0.26,-0.78,-5.21,1.06,0.18,9.73
-0.05,-0.97,-5.33,0.67,0.11,9.67
-0.48,-1.23,-5.76,1.23,-0.07,10.15
-0.27,-1.26,-5.82,1.16,-0.15,10.36
0.31,-1.79,-6.34,1.15,-0.05,10.79
0.06,-2.11,-6.47,1.00,0.19,11.07
-0.67,-2.43,-6.69,0.65,0.12,10.87
-1.36,-2.71,-7.08,1.18,0.12,11.11
-1.52,-2.91,-7.10,1.00,0.00,10.91
-1.42,-3.45,-7.78,1.19,0.04,10.34
-1.50,-3.72,-7.78,1.15,0.07,10.05
-1.67,-3.81,-8.19,0.80,-0.02,9.25
-1.40,-3.77,-8.59,1.37,0.06,9.05
-1.29,-2.85,-8.97,1.33,-0.08,8.46
-1.25,-2.40,-9.37,1.59,-0.03,8.49
-1.20,-2.00,-9.47,1.44,-0.22,8.57
-0.43,-1.59,-10.22,1.77,-0.13,9.17
0.05,-1.15,-10.32,1.48,0.13,9.58
-0.41,-1.16,-10.73,1.49,0.23,9.71
-1.36,-1.34,-10.99,1.91,0.14,10.03
-1.62,-1.30,-11.12,1.89,-0.25,9.90
0.01,-0.94,-11.78,2.19,-0.46,9.40
0.79,-0.78,-11.85,2.32,-0.10,9.52
1.10,-0.32,-12.25,2.08,0.19,9.47
0.52,-0.16,-12.50,2.21,0.33,9.46
-0.23,-0.29,-13.08,2.02,-0.28,9.31
0.02,-0.73,-13.29,2.24,-0.46,9.50
0.81,-0.82,-13.34,2.17,-0.38,10.03
0.80,-1.15,-13.93,2.18,0.05,10.62
0.81,-1.60,-14.00,1.67,0.00,10.42
0.56,-2.43,-14.38,1.93,-0.13,10.17
0.47,-2.92,-14.41,2.39,-0.10,10.27
0.67,-2.12,-14.89,2.69,-0.14,9.71
0.90,-1.70,-14.86,2.54,-0.00,9.50
1.12,-1.28,-14.90,2.48,0.06,9.49
0.89,-0.84,-15.21,2.83,0.19,9.83
0.58,-0.38,-15.11,2.82,0.30,10.06
-0.58,-0.33,-15.38,2.57,0.14,9.71
-0.59,-0.28,-15.33,2.77,-0.04,9.72
-0.48,0.08,-15.42,2.74,-0.22,9.49
-0.76,0.76,-15.41,2.85,0.17,9.80
-1.45,0.77,-15.50,2.63,0.14,9.79
-2.00,0.36,-15.60,2.67,0.00,9.99
-1.70,-0.29,-15.52,2.43,-0.28,9.71
-0.53,-1.61,-15.64,2.86,-0.29,9.31
-0.17,-1.27,-15.60,2.75,-0.22,8.95
-0.32,-0.81,-15.74,3.04,-0.20,9.02
-0.13,-0.14,-15.72,3.16,-0.06,9.41
-0.14,0.44,-15.68,2.89,0.02,9.75
-0.24,0.50,-15.80,2.49,0.01,10.61
-0.49,-0.28,-15.86,2.10,-0.12,10.57
-0.44,-0.92,-15.87,2.31,-0.26,10.77
0.10,-1.45,-15.93,2.59,-0.48,10.13
0.64,-1.39,-15.80,2.80,-0.25,10.05
0.42,-1.19,-15.75,3.03,0.05,9.99
-0.15,-0.65,-15.75,2.99,0.16,10.15
-1.09,0.09,-15.82,2.66,-0.34,10.09
-0.56,-0.11,-15.74,2.47,-0.48,10.13
0.09,-0.52,-15.69,2.44,-0.44,10.09
0.48,-0.76,-15.69,2.72,-0.16,10.24
-0.38,-0.94,-15.61,2.76,0.01,9.51
-0.58,-0.67,-15.61,2.76,-0.20,9.11
-0.25,-0.21,-15.56,2.83,-0.38,8.71
0.24,0.40,-15.55,3.10,-0.25,8.80
-0.03,1.47,-15.44,2.93,0.05,8.94
-0.36,1.57,-15.41,2.88,-0.20,8.98
-0.05,1.60,-15.41,2.80,-0.49,8.95
0.72,1.70,-15.44,2.77,-0.54,8.95
1.31,1.78,-15.49,2.62,-0.04,9.43
1.08,1.55,-15.52,2.51,0.10,9.67
0.59,1.24,-15.51,2.70,0.00,9.93
0.50,1.14,-15.53,2.74,-0.15,10.07
0.36,1.07,-15.54,2.72,-0.21,10.25
0.36,0.41,-15.56,2.25,-0.04,10.18
-0.13,-0.12,-15.61,2.51,-0.01,10.27
-0.32,-0.28,-15.58,2.73,0.02,10.31
-0.78,-0.30,-15.52,2.61,-0.26,9.91
-0.61,-0.18,-15.44,2.68,-0.25,9.99
-0.60,0.05,-15.45,2.59,-0.12,10.09
-0.93,0.18,-15.52,2.53,0.10,10.35
-1.83,-0.41,-15.52,2.49,-0.13,10.43
-1.89,-0.65,-15.45,2.60,-0.35,10.40
-1.41,-0.62,-15.38,2.62,-0.36,10.26
-1.21,-0.44,-15.40,2.64,-0.08,10.31
-1.67,-0.36,-15.40,2.55,0.16,10.21
-2.75,-0.27,-15.41,2.74,-0.13,9.75
-2.51,0.05,-15.35,2.80,-0.48,9.41
-1.89,0.47,-15.35,2.85,-0.56,9.32
-1.08,1.00,-15.35,2.66,-0.06,9.17
-1.36,0.96,-15.36,2.60,0.03,9.16
-1.60,1.00,-15.35,2.72,-0.14,9.12
-1.61,1.14,-15.41,2.84,-0.40,9.04
-0.43,1.57,-15.41,2.63,-0.50,8.98
-0.01,1.67,-15.45,2.74,-0.15,9.41
-0.21,1.65,-15.43,2.74,0.11,9.79
-0.86,1.45,-15.49,2.56,0.13,9.94
-1.23,0.95,-15.41,2.48,-0.13,9.98
-0.42,0.37,-15.48,2.67,-0.52,9.74
0.19,0.49,-15.38,2.79,-0.28,9.58
0.05,0.65,-15.42,2.79,0.06,9.66
-1.48,0.93,-15.43,2.73,0.12,9.64
-1.58,0.97,-15.39,2.70,-0.09,9.77
-1.64,0.86,-15.34,2.66,-0.20,9.96
-1.86,0.56,-15.39,2.46,-0.19,10.09
-2.06,-0.69,-15.31,2.34,-0.38,9.95
-1.53,-0.96,-15.35,2.51,-0.41,9.89
-1.07,-1.08,-15.32,2.52,-0.26,9.55
-0.99,-1.17,-15.31,2.57,-0.07,9.32
-1.11,-1.08,-15.33,2.71,0.00,9.14
-1.21,0.28,-15.36,2.86,-0.40,8.90
-0.80,1.04,-15.35,2.85,-0.46,8.83
-0.19,1.41,-15.33,2.59,-0.34,8.95
-0.01,1.41,-15.38,2.52,-0.16,9.21
-0.38,1.51,-15.43,2.53,-0.13,9.68
-0.48,1.30,-15.50,2.45,-0.35,9.60
0.06,1.08,-15.52,2.36,-0.52,9.62
0.79,0.64,-15.62,2.57,-0.14,9.92
0.61,0.45,-15.56,2.61,0.10,10.06
0.01,0.16,-15.59,2.58,0.11,10.14
-0.37,-0.11,-15.64,2.51,-0.07,10.20
-0.34,-0.42,-15.60,2.51,-0.28,10.20
0.06,-0.76,-15.60,2.52,-0.20,10.60
-0.34,-1.21,-15.54,2.40,-0.00,10.55
-0.61,-1.60,-15.50,2.40,-0.10,10.42
-0.22,-1.78,-15.46,2.73,-0.35,9.70
0.27,-1.24,-15.39,2.81,-0.16,9.56
-0.37,-0.81,-15.43,2.82,0.10,9.59
-0.82,-0.53,-15.44,2.49,0.04,9.20
-0.17,-0.68,-15.29,2.97,-0.51,9.10
0.54,0.11,-15.32,2.87,-0.41,9.00
0.47,0.76,-15.36,2.78,-0.22,9.02
0.47,1.07,-15.32,2.70,-0.15,9.15
0.50,1.32,-15.40,2.72,-0.19,9.29
0.51,1.73,-15.37,2.73,-0.20,9.75
0.65,1.48,-15.46,2.53,-0.22,9.70
0.94,0.68,-15.32,2.53,-0.37,9.53
1.21,0.20,-15.36,2.54,-0.54,9.29
1.99,0.82,-15.39,2.88,0.05,9.53
1.21,0.94,-15.49,2.68,0.29,9.71
0.46,0.59,-15.45,2.60,0.22,9.90
0.41,0.43,-15.36,2.84,-0.44,10.51
0.73,0.52,-15.35,2.64,-0.42,10.39
1.15,0.33,-15.29,2.26,-0.18,10.36
1.02,-0.13,-15.31,2.37,0.12,10.57
0.39,-0.48,-15.34,2.57,0.30,10.68
-1.43,-0.77,-15.26,2.58,0.02,10.57
-1.74,-1.21,-15.16,2.39,-0.27,10.19
-1.38,-1.37,-15.16,2.56,-0.52,10.06
-0.81,-1.15,-15.09,2.79,-0.39,9.96
-1.20,-0.30,-14.99,2.74,0.25,10.17
-2.16,-0.50,-14.99,2.51,0.10,10.00
-2.07,-0.48,-14.96,2.33,-0.33,9.67
-0.63,-0.06,-14.89,2.67,-0.50,9.55
-0.21,0.14,-14.86,2.39,-0.29,9.16
-0.38,0.18,-14.88,2.71,-0.17,9.21
-0.09,0.53,-14.87,2.68,-0.19,8.96
0.11,1.49,-14.84,3.00,-0.18,9.09
0.20,1.83,-14.84,2.69,-0.18,9.06
0.07,1.83,-14.79,2.67,-0.27,9.25
0.35,1.81,-14.71,2.65,-0.39,9.59
1.01,1.51,-14.63,2.41,0.05,10.04
0.55,1.12,-14.59,2.46,0.27,10.36
-0.50,0.73,-14.70,2.51,0.21,10.38
-0.90,0.35,-14.60,2.41,-0.13,10.16
-0.29,0.02,-14.46,2.73,-0.21,10.42
-0.65,0.07,-14.36,2.56,0.11,10.46
-1.27,-0.04,-14.30,2.43,0.24,10.54
-2.08,-0.42,-14.19,2.39,0.01,10.62
-1.58,-1.22,-14.16,2.24,-0.45,9.89
-1.09,-1.42,-14.09,2.44,-0.35,9.62
-1.06,-1.58,-14.15,2.33,-0.08,9.21
-1.32,-1.50,-13.97,2.64,0.01,9.16
-1.58,-1.02,-13.88,2.85,-0.20,9.06
-1.03,0.56,-13.72,2.63,-0.29,9.20
-0.73,0.82,-13.77,2.16,-0.26,9.22
-0.55,0.88,-13.84,2.20,-0.26,9.63
-0.00,0.90,-13.76,2.31,-0.47,9.51
0.81,0.78,-13.67,2.38,-0.45,9.30
1.17,0.81,-13.68,2.75,-0.33,9.25
1.36,1.35,-13.62,2.67,-0.09,9.15
0.50,2.46,-13.69,2.56,0.07,9.76
0.16,2.31,-13.58,2.23,-0.01,9.93
-0.09,1.84,-13.64,2.34,-0.13,10.33
0.15,1.44,-13.48,2.27,-0.19,10.55
0.25,0.98,-13.34,2.22,-0.37,10.53
0.30,0.31,-13.36,2.16,0.03,10.19
0.07,-0.10,-13.41,2.18,0.11,9.95
-0.31,-0.24,-13.36,2.62,0.18,10.05
-1.36,-0.11,-13.26,2.42,-0.39,9.52
-0.72,-0.06,-13.11,2.35,-0.54,9.55
-0.11,-0.21,-13.08,2.10,-0.52,9.51
0.20,-0.34,-13.14,2.28,-0.18,9.92
-0.55,-0.84,-13.03,2.01,-0.01,9.69
-0.63,-1.14,-12.98,2.27,-0.31,9.75
-0.05,-1.07,-12.93,2.29,-0.61,9.22
0.90,-0.60,-12.85,2.47,-0.51,9.05
1.50,0.12,-12.75,2.51,-0.12,9.14
0.30,1.16,-12.78,2.50,0.24,9.46
-0.16,1.76,-12.79,2.50,-0.17,9.45
0.18,2.15,-12.80,2.32,-0.51,9.34
1.68,2.45,-12.67,2.36,-0.31,9.81
1.28,2.48,-12.65,2.52,-0.02,10.27
0.80,2.67,-12.60,2.30,0.04,10.23
0.46,2.45,-12.53,2.26,0.02,10.19
0.14,1.87,-12.45,2.19,-0.15,10.21
-0.06,1.67,-12.37,2.24,-0.16,10.17
-0.08,1.36,-12.30,2.18,-0.15,10.14
-0.08,0.82,-12.29,1.98,-0.02,10.06
-0.28,0.17,-12.18,2.12,-0.02,10.11
-0.16,-0.02,-11.88,2.32,-0.30,9.74
-0.02,0.21,-11.80,2.13,-0.47,9.51
0.38,0.41,-11.85,2.14,-0.45,9.48
1.18,0.62,-11.62,2.15,-0.10,9.95
0.80,0.71,-11.53,2.04,0.05,10.14
0.32,0.65,-11.47,2.14,-0.11,10.23
0.43,0.75,-11.28,2.21,-0.33,10.28
1.09,1.24,-11.09,2.04,-0.33,9.93
1.67,1.31,-10.88,1.94,0.07,9.94
1.14,1.17,-10.83,2.08,0.18,9.94
0.31,1.27,-10.79,2.37,0.10,9.97
0.66,1.87,-10.45,2.02,-0.43,9.60
1.16,1.76,-10.29,1.91,-0.37,9.67
1.47,1.55,-10.16,1.82,-0.24,9.67
1.50,1.62,-10.07,1.98,-0.02,9.78
1.33,1.85,-9.83,2.16,0.06,9.84
0.44,2.50,-9.62,2.09,-0.21,9.53
0.66,2.69,-9.43,2.01,-0.33,9.37
1.10,2.84,-9.25,1.82,-0.19,9.54
0.34,2.49,-9.04,1.82,0.35,10.21
-0.17,2.10,-8.79,1.61,0.30,10.16
-0.80,1.44,-8.64,1.50,0.03,9.79
-0.71,1.19,-8.49,1.61,-0.21,9.73
-0.34,1.09,-8.33,1.81,-0.25,9.56
-0.72,1.54,-7.97,1.61,0.36,9.96
-1.93,1.29,-7.88,1.56,0.33,10.03
-2.54,1.15,-7.72,1.66,0.00,10.49
-2.72,1.22,-7.47,1.59,-0.41,10.68
-1.78,0.99,-7.08,1.22,-0.41,10.80
-1.67,0.61,-6.93,1.33,-0.20,10.78
-1.89,0.53,-6.79,1.34,0.01,10.45
-2.19,0.86,-6.51,1.48,-0.23,9.47
-1.59,1.22,-6.35,1.60,-0.34,9.19
-1.25,1.74,-6.11,1.73,-0.31,9.23
-0.99,2.43,-5.88,1.56,-0.09,9.42
-1.58,3.04,-5.56,1.31,-0.14,9.74
-1.61,3.14,-5.40,1.17,-0.43,9.67
-0.92,3.15,-5.28,1.13,-0.50,9.51
-0.31,2.94,-5.17,1.21,-0.29,9.68
-0.96,2.64,-4.87,1.18,0.16,9.97
-1.60,2.46,-4.64,1.14,0.08,10.04
-1.92,2.08,-4.42,1.10,-0.20,10.06
-1.61,1.69,-4.23,0.99,-0.37,9.83
-0.74,1.98,-3.95,1.06,-0.08,9.76
-0.97,2.26,-3.85,1.05,0.22,9.65
-1.66,2.22,-3.71,1.00,0.25,9.59
-1.95,2.13,-3.53,1.06,0.00,9.43
-1.71,2.24,-3.30,1.03,-0.30,9.43
-1.15,2.60,-2.99,0.99,-0.38,9.48
-0.91,2.87,-2.82,0.74,-0.13,9.51
-1.30,2.88,-2.76,0.70,0.02,9.41
-1.47,2.72,-2.40,0.97,-0.23,9.28
-1.45,3.01,-2.25,1.19,-0.19,9.44
-1.32,3.36,-2.06,0.89,0.01,9.39
-1.59,3.47,-1.97,0.55,0.12,9.45
-2.28,2.70,-1.71,0.43,0.03,9.68
-2.79,2.45,-1.64,0.58,-0.03,9.98
-2.93,2.50,-1.44,0.57,-0.20,9.89
-2.99,2.59,-1.35,0.44,-0.37,9.59
-2.13,3.00,-1.21,0.43,-0.41,9.17
-1.66,3.45,-1.23,0.80,-0.41,9.38
-1.37,4.07,-1.16,0.74,-0.39,9.34
-1.40,4.49,-1.12,0.37,-0.43,8.93
-0.98,4.74,-0.99,0.34,-0.46,9.04
0.10,4.78,-0.94,0.42,-0.48,9.32
0.82,4.58,-0.76,0.44,-0.25,9.46
1.21,4.30,-0.60,0.33,-0.22,9.52
1.28,3.64,-0.59,0.37,-0.39,9.40
1.78,3.61,-0.54,0.54,-0.42,9.67
2.09,3.77,-0.43,0.43,-0.31,9.79
2.15,3.62,-0.27,0.17,-0.10,10.07
1.33,2.37,-0.17,-0.09,0.15,11.01
0.53,1.49,-0.04,-0.17,0.09,11.21
-0.21,0.90,0.06,-0.18,-0.12,11.11
-0.59,0.37,0.16,-0.13,-0.36,10.63
-0.36,0.08,0.30,0.12,-0.36,10.23
-0.35,1.11,0.57,0.32,0.30,9.84
-1.31,1.65,0.62,0.07,0.44,9.51
-2.26,1.91,0.64,-0.08,0.20,9.22
-2.15,2.13,0.71,0.06,-0.29,8.73
-1.85,2.31,0.81,0.08,-0.44,8.44
-1.50,2.44,0.80,-0.04,-0.45,7.95
-0.69,2.63,0.83,0.01,-0.48,7.63
0.55,3.81,0.75,0.49,-0.41,8.29
0.45,4.77,0.82,0.45,-0.17,8.98
0.13,5.41,0.90,0.07,-0.05,9.74
-0.28,5.13,0.93,-0.14,-0.19,10.48
-0.33,4.16,1.04,-0.34,-0.50,10.86
1.14,2.69,1.12,-0.20,-0.55,10.67
1.65,2.28,1.15,-0.07,-0.14,10.45
1.21,2.13,1.08,0.01,0.13,10.21
-0.37,3.02,1.23,0.42,-0.08,10.70
-0.69,3.24,1.29,-0.07,-0.19,10.71
-0.77,2.63,1.48,-0.48,-0.35,11.01
-0.36,1.69,1.42,-0.56,-0.34,11.16
-1.16,0.85,1.54,-0.08,-0.12,11.31
-1.73,0.70,1.53,-0.36,-0.19,10.72
-1.86,0.16,1.74,-0.75,-0.33,9.97
-1.62,-0.58,1.72,-0.54,-0.47,9.61
-1.21,-0.84,1.75,-0.01,-0.38,9.49
-0.85,-0.20,2.02,-0.43,-0.34,8.54
-0.60,0.05,2.03,-0.21,-0.25,8.52
-0.29,0.55,2.20,-0.27,-0.31,8.52
0.22,1.87,2.19,-0.32,-0.23,8.85
0.60,1.87,2.36,-0.64,-0.34,8.85
0.97,1.29,2.32,-0.55,-0.32,8.81
1.27,1.01,2.56,-0.19,-0.21,9.14
0.90,1.97,2.73,-0.21,0.16,9.34
0.04,2.09,3.04,-0.30,0.09,9.70
-0.46,2.06,3.10,-0.33,-0.17,9.92
-0.35,1.86,3.18,-0.17,-0.25,9.93
0.07,1.61,3.61,-0.30,-0.35,10.01
-0.18,1.40,3.67,-0.20,0.10,9.95
-0.70,1.29,4.04,-0.43,0.14,9.98
-1.35,1.27,3.99,-0.29,-0.06,10.02
-1.53,1.22,4.64,-0.42,-0.33,10.31
-1.45,0.96,4.60,-0.44,-0.32,10.31
-1.48,0.69,4.88,-0.35,-0.14,10.47
-1.80,0.54,5.15,-0.54,-0.33,10.30
-1.75,0.88,5.34,-0.34,-0.16,10.16
-2.05,0.75,5.57,-0.80,-0.31,9.86
-1.89,0.57,5.47,-0.52,-0.27,9.73
-1.62,0.50,5.93,-0.18,-0.40,9.81
-1.38,0.74,6.08,-0.77,-0.60,9.22
-0.41,1.31,6.27,-0.56,-0.16,9.32
-0.50,1.74,6.22,-0.70,-0.03,9.30
-1.04,2.14,6.26,-0.54,0.01,9.44
-0.59,2.70,6.55,-0.98,-0.58,9.30
-0.01,2.54,6.70,-0.70,-0.32,9.66
0.15,2.70,7.06,-0.95,-0.13,9.97
-0.43,2.72,6.84,-1.26,-0.05,9.88
-1.00,1.35,7.29,-1.34,-0.35,10.17
-0.72,0.54,7.19,-1.44,-0.57,9.82
-0.06,-0.15,7.50,-1.10,-0.43,9.88
0.52,-0.50,7.72,-1.32,-0.29,9.59
0.16,-0.92,7.64,-1.15,0.01,9.44
-0.80,-0.42,8.07,-1.16,-0.22,9.41
-0.80,-0.18,8.14,-1.03,-0.29,9.62
-0.52,-0.32,8.52,-1.55,-0.35,9.68
-0.11,-0.89,8.60,-0.94,-0.25,10.14
-0.22,-0.83,8.96,-1.47,-0.21,9.63
-0.25,-0.80,8.94,-1.54,-0.39,9.10
0.07,-0.69,9.05,-0.83,-0.40,9.36
0.65,0.42,9.45,-0.98,-0.26,9.23
0.31,1.06,9.61,-0.74,-0.13,9.80
0.31,1.17,9.88,-1.67,-0.23,9.36
0.65,0.84,9.88,-1.47,-0.39,9.57
0.60,0.56,10.01,-1.03,-0.41,10.10
1.55,0.45,10.11,-1.40,-0.33,9.54
1.40,0.30,10.37,-1.05,-0.16,10.04
1.11,0.45,10.44,-1.67,-0.12,9.45
1.23,0.81,10.77,-0.89,-0.15,10.01
1.02,1.07,10.82,-1.68,-0.16,9.52
0.89,1.20,10.77,-1.37,-0.15,9.89
0.86,1.20,11.03,-1.36,-0.16,10.05
0.39,1.07,11.06,-1.24,-0.09,10.31
0.18,1.01,11.29,-1.57,-0.19,10.19
0.11,0.82,11.26,-1.75,-0.21,10.00
0.00,0.74,11.35,-1.29,-0.13,10.56
-0.20,0.72,11.48,-1.61,-0.16,10.33
-0.57,0.30,11.52,-1.71,-0.17,10.32
-0.74,-0.10,11.51,-1.80,-0.28,9.86
-0.39,-0.16,11.47,-1.48,-0.35,9.89
-0.21,0.07,11.64,-1.36,-0.40,9.85
0.12,0.04,11.66,-1.91,-0.27,9.57
0.17,-0.30,11.59,-1.91,-0.14,9.76
-0.07,-0.44,11.49,-1.75,0.01,10.02
-0.64,-0.80,11.54,-2.01,-0.46,9.78
-0.11,-1.11,11.53,-1.94,-0.62,9.75
0.66,-0.98,11.49,-1.55,-0.48,9.88
0.87,-0.66,11.49,-1.68,-0.19,9.71
0.72,-0.37,11.43,-2.02,-0.01,9.58
0.22,-0.47,11.21,-1.74,-0.36,9.61
0.54,-0.11,11.15,-1.49,-0.59,9.57
1.26,0.48,11.17,-1.55,-0.56,9.66
1.58,0.61,11.13,-1.86,-0.37,9.54
1.30,0.39,11.01,-1.69,0.18,10.11
0.50,0.35,10.90,-1.65,0.00,10.04
0.13,0.34,10.83,-1.53,-0.25,10.10
0.76,0.08,10.75,-1.87,-0.37,9.65
0.78,-0.18,10.76,-1.71,-0.13,9.92
0.56,-0.49,10.66,-1.77,-0.01,10.02
-0.02,-1.02,10.54,-1.82,-0.04,10.05
0.10,-1.66,10.52,-1.52,-0.32,9.89
0.13,-1.48,10.55,-1.39,-0.21,9.99
-0.26,-1.02,10.58,-1.37,-0.03,10.06
-0.79,-0.70,10.57,-1.48,-0.02,10.10
-1.24,-0.79,10.57,-1.75,-0.22,9.82
-0.58,-0.54,10.53,-0.96,-0.26,10.00
-0.63,0.02,10.56,-1.16,-0.05,9.86
-1.28,0.37,10.52,-1.50,0.13,9.73
-1.80,0.03,10.45,-1.70,-0.43,9.52
-1.07,-0.12,10.42,-1.42,-0.46,9.54
-0.42,0.11,10.41,-1.28,-0.37,9.53
-0.57,-0.01,10.34,-1.54,-0.15,9.10
-0.60,-0.19,10.25,-1.09,-0.49,9.07
0.06,0.47,10.30,-0.95,-0.50,9.28
0.33,1.16,10.35,-1.46,-0.32,9.45
0.17,1.16,10.21,-1.65,-0.12,9.77
-0.03,0.61,10.21,-1.76,-0.14,10.22
0.19,0.07,10.11,-1.38,-0.46,10.45
0.53,-0.01,10.19,-1.52,-0.24,10.35
0.38,-0.05,10.04,-1.61,0.10,10.45
-1.11,-0.51,10.00,-1.67,-0.14,10.61
-1.18,-0.67,9.98,-1.42,-0.34,10.56
-0.80,-0.64,10.07,-1.49,-0.43,10.35
-0.51,-0.69,9.98,-1.74,-0.26,10.13
-1.41,-0.86,9.85,-1.51,-0.06,10.49
-1.88,-0.94,9.80,-1.59,-0.27,10.34
-1.74,-1.26,9.91,-1.55,-0.58,10.11
-1.10,-1.88,9.93,-1.72,-0.58,9.40
-0.24,-2.17,9.97,-1.56,-0.44,9.00
-0.14,-0.74,9.86,-0.94,-0.00,8.83
-0.88,0.00,9.88,-1.39,-0.00,8.63
-0.97,0.19,9.81,-1.46,-0.34,8.56
0.73,0.20,9.89,-1.56,-0.48,8.93
0.95,-0.01,9.83,-1.73,-0.15,8.93
0.73,-0.25,9.73,-1.45,-0.08,9.12
0.78,-0.41,9.62,-1.58,-0.20,8.52
1.25,0.30,9.59,-0.73,-0.50,8.78
1.64,1.12,9.56,-0.79,-0.23,9.14
1.46,1.60,9.59,-1.39,0.11,9.46
0.87,1.42,9.50,-1.72,0.15,9.96
0.14,0.78,9.42,-1.61,-0.19,10.62
0.96,0.05,9.40,-1.31,-0.43,10.43
1.10,0.13,9.41,-1.20,-0.16,10.47
0.48,0.23,9.26,-1.37,0.11,10.23
-0.43,0.35,9.15,-1.35,-0.06,10.83
-1.07,0.01,9.06,-1.69,-0.09,10.75
-1.30,-0.69,8.99,-1.73,-0.28,10.71
-1.09,-1.34,8.89,-1.43,-0.40,10.58
-1.05,-1.32,8.86,-1.27,-0.29,10.25
-1.16,-1.23,8.82,-1.35,-0.20,10.06
-1.05,-1.22,8.81,-1.51,-0.20,10.07
-1.33,-1.33,8.73,-1.45,-0.27,10.15
-1.46,-1.26,8.64,-1.34,-0.29,10.24
-1.15,-0.98,8.52,-1.28,-0.34,9.93
-1.07,-0.87,8.48,-1.38,-0.25,9.65
-0.85,-0.61,8.45,-1.17,-0.18,9.66
-0.87,0.03,8.24,-1.24,-0.11,9.08
-1.03,0.51,8.13,-0.87,-0.24,9.15
-0.88,1.09,8.00,-0.97,-0.36,8.71
-0.50,1.41,8.01,-1.17,-0.42,8.49
0.16,1.60,7.73,-1.01,-0.07,9.00
-0.24,1.44,7.74,-1.03,0.07,9.40
-0.80,1.14,7.62,-1.27,-0.05,9.49
-1.09,0.54,7.58,-1.54,-0.35,9.45
-0.83,-0.19,7.55,-1.24,-0.63,9.58
0.27,-0.64,7.38,-1.22,-0.17,9.82
-0.15,-0.92,7.33,-1.19,0.19,9.95
-0.97,-1.28,7.23,-1.14,0.23,10.06
-1.80,-1.25,7.22,-1.11,-0.56,10.30
-1.23,-1.26,7.07,-1.31,-0.80,10.13
-0.20,-1.63,7.09,-1.41,-0.62,10.06
0.26,-1.79,7.05,-1.17,-0.16,10.26
-1.26,-1.44,6.90,-0.99,-0.02,10.18
-1.67,-1.14,6.76,-0.94,-0.39,10.07
-0.99,-0.85,6.68,-1.21,-0.65,9.79
-0.16,-0.76,6.61,-1.16,-0.62,9.80
0.05,-0.75,6.48,-0.93,-0.21,10.21
-1.22,-1.02,6.21,-1.22,-0.03,9.91
-1.29,-1.38,6.08,-1.19,-0.40,9.51
-0.48,-1.37,5.97,-1.07,-0.65,9.08
0.22,-0.97,5.83,-0.61,-0.56,9.13
0.59,0.04,5.64,-0.93,-0.13,8.87
0.42,-0.04,5.48,-0.91,-0.15,8.98
0.29,0.04,5.33,-0.78,-0.34,9.13
1.19,0.19,5.21,-0.79,-0.51,9.44
1.50,-0.05,5.06,-0.78,-0.52,9.60
1.81,-0.37,4.93,-1.08,-0.29,9.47
2.09,-0.39,4.90,-0.77,-0.13,9.71
1.66,-0.30,4.70,-0.37,-0.01,10.00
1.05,-0.01,4.57,-0.70,-0.22,9.53
0.88,0.00,4.39,-0.52,-0.45,9.66
1.39,0.41,4.30,-0.54,-0.39,9.86
1.28,0.43,4.15,-0.72,0.17,10.46
0.46,-0.03,4.06,-0.98,0.23,10.55
-0.66,-0.57,3.87,-0.62,0.00,10.51
-0.78,-0.69,3.84,-0.67,-0.33,10.25
-0.43,-0.73,3.54,-0.44,-0.38,10.37
-0.52,-0.91,3.49,-0.76,-0.15,10.39
-0.99,-1.43,3.39,-0.82,-0.02,10.25
-1.23,-1.86,3.40,-0.50,-0.01,10.48
-1.70,-1.63,3.08,-0.76,-0.50,9.69
-1.22,-1.70,3.11,-0.74,-0.69,9.26
-0.07,-1.62,2.97,-0.75,-0.63,9.12
0.38,-1.55,2.78,-0.43,-0.38,9.14
0.50,-0.67,2.61,-0.47,0.03,9.08
0.06,-0.64,2.51,-0.52,-0.18,8.98
0.22,-0.43,2.37,-0.44,-0.46,9.13
0.64,0.10,2.27,-0.18,-0.59,9.34
1.16,0.88,2.15,-0.62,-0.05,9.89
0.59,0.44,1.96,-0.71,0.11,10.14
0.04,0.10,1.76,-0.40,0.07,10.40
-0.27,0.12,1.74,-0.20,-0.21,10.47
-0.22,0.20,1.54,-0.24,-0.47,10.36
0.18,-0.08,1.49,-0.30,-0.30,10.39
0.28,-0.24,1.38,-0.37,-0.01,10.41
-0.01,-0.27,1.26,-0.28,0.12,10.55
-0.79,-0.29,1.10,-0.05,0.14,10.72
-1.89,-0.85,0.95,-0.28,-0.59,9.95
-1.11,-1.03,0.86,-0.19,-0.79,9.69
0.21,-1.07,0.81,0.02,-0.59,9.51
-0.05,-0.95,0.66,-0.45,0.28,9.27
-1.26,-1.31,0.52,-0.21,-0.03,9.09
-1.23,-1.31,0.38,0.09,-0.57,9.24
-0.20,-0.99,0.37,-0.14,-0.87,8.89
1.60,-0.82,0.32,-0.20,-0.07,9.53
1.19,-1.23,0.26,-0.36,0.29,9.53
0.09,-1.36,0.15,-0.03,0.20,9.73
-0.20,-0.83,0.16,0.05,-0.25,9.51
1.04,0.40,0.01,0.27,-0.56,9.51
1.44,0.92,0.07,0.11,-0.14,9.76
1.01,1.05,-0.02,-0.03,0.28,10.10
0.28,0.98,-0.01,-0.06,0.35,10.45
-1.24,0.07,-0.21,-0.23,-0.40,9.99
-0.36,-0.21,-0.12,0.03,-0.74,9.72
0.63,-0.29,-0.11,0.15,-0.57,9.51
0.86,-0.08,-0.14,0.31,0.04,9.45
-1.09,0.42,0.01,0.24,0.32,9.53
-1.90,0.70,0.01,0.33,-0.07,9.66
-1.75,0.96,0.05,0.23,-0.58,9.77
-0.90,1.11,0.10,0.10,-0.76,9.96
-0.07,0.86,0.23,0.03,-0.47,10.22
-0.45,0.05,0.20,-0.09,0.06,10.13
-0.94,-0.18,0.26,0.20,-0.23,9.87
-0.72,0.02,0.36,0.38,-0.59,9.65
0.67,0.81,0.51,0.11,-0.29,9.85
0.57,0.62,0.55,-0.20,0.17,10.31
-0.36,0.04,0.50,-0.46,0.25,10.67
-1.23,-0.95,0.47,-0.48,-0.04,10.48
-0.14,-1.88,0.53,-0.12,-0.81,9.83
0.74,-1.79,0.57,-0.15,-0.60,9.35
1.37,-1.45,0.60,-0.18,-0.09,9.30
0.92,-1.14,0.55,-0.05,0.34,9.47
-0.11,-0.75,0.52,-0.16,0.36,9.53
-1.08,-0.34,0.44,-0.13,-0.57,9.55
-0.05,-0.02,0.43,-0.25,-0.81,9.47
0.81,0.10,0.39,-0.27,-0.59,9.50
0.77,0.20,0.28,-0.40,0.37,9.71
-0.56,-0.02,0.15,-0.17,0.24,9.80
-1.07,-0.02,0.09,0.03,-0.24,9.55
-0.72,0.13,0.11,0.09,-0.66,9.36
0.86,0.30,0.12,-0.15,-0.23,9.22
0.70,0.02,0.09,0.00,0.09,9.67
0.03,0.05,0.02,0.07,0.18,9.87
-0.55,0.09,-0.02,0.01,-0.13,9.57
-0.33,-0.04,-0.00,0.05,-0.52,9.45
1.12,-0.29,0.04,0.08,-0.51,9.43
1.45,-0.02,0.01,0.48,-0.16,10.03
0.96,0.22,0.10,0.08,0.10,10.19
-0.32,-0.81,0.12,-0.17,-0.14,10.87
-0.40,-1.22,0.10,0.05,-0.51,11.01
0.43,-1.29,0.18,0.01,-0.50,10.72
0.79,-1.26,0.33,-0.10,-0.25,10.43
-0.14,-1.02,0.24,-0.00,0.20,9.94
-0.61,-0.57,0.23,0.10,-0.03,9.59
-0.60,-0.00,0.21,0.44,-0.37,9.60
-0.25,0.60,0.30,0.29,-0.41,9.47
0.14,1.01,0.35,-0.01,-0.29,9.46
-0.18,1.02,0.35,-0.19,-0.14,9.63
-0.20,0.73,0.28,-0.29,-0.25,9.45
-0.03,0.69,0.19,0.06,-0.28,9.54
0.19,0.68,0.23,0.06,-0.16,9.18
0.05,0.79,0.21,0.22,-0.10,9.31
-0.07,0.85,0.23,0.08,-0.12,9.32
-0.27,0.68,0.22,-0.22,-0.20,9.38
0.30,-0.17,0.11,-0.24,-0.29,9.90
0.45,-0.60,0.13,-0.08,-0.19,10.19
0.14,-0.77,0.16,-0.08,-0.12,10.17
0.02,-0.91,0.20,-0.26,-0.15,9.90
-0.03,-0.56,0.07,0.30,-0.28,10.22
-0.14,-0.10,0.16,0.06,-0.22,10.20
-0.24,0.09,0.20,-0.13,-0.19,10.39
-0.26,-0.05,0.16,-0.07,-0.19,10.63
-0.28,-0.39,0.21,-0.20,-0.22,10.48
-0.13,-0.55,0.24,-0.21,-0.41,10.12
0.17,-0.72,0.19,-0.05,-0.36,9.97
0.34,-0.66,0.21,0.15,-0.18,10.13
-0.24,-0.36,0.23,-0.15,-0.20,9.56
0.10,-0.48,0.23,-0.11,-0.35,9.44
0.57,-0.33,0.20,0.04,-0.38,9.42
0.65,0.20,0.17,0.21,-0.24,9.56
0.40,0.50,0.24,0.05,-0.19,9.37
0.77,0.18,0.22,-0.05,-0.38,9.16
1.30,0.40,0.22,0.19,-0.34,9.27
1.37,0.88,0.20,0.18,-0.12,9.38
1.09,0.99,0.20,-0.22,0.10,9.25
0.45,0.35,0.11,0.15,-0.23,9.59
0.80,0.23,0.18,0.01,-0.36,9.29
1.31,0.19,0.23,0.00,-0.33,9.31
1.04,0.16,0.20,-0.02,0.14,9.70
0.29,0.26,0.19,0.04,0.04,10.00
-0.06,0.21,0.17,-0.06,-0.29,10.15
0.18,-0.14,0.17,-0.25,-0.53,10.17
1.04,-0.52,0.17,-0.13,-0.51,10.39
1.03,-1.12,0.23,-0.21,0.04,10.32
0.48,-1.22,0.24,0.05,0.14,10.25
-0.00,-1.17,0.30,0.16,0.05,10.22
-0.41,-0.71,0.34,0.09,-0.09,10.17
-0.58,-0.07,0.31,-0.04,-0.26,10.41
-0.73,-0.30,0.36,-0.22,-0.12,10.52
-0.98,-0.54,0.35,-0.28,-0.01,10.47
-1.27,-0.68,0.30,0.15,-0.37,9.89
-0.84,-0.22,0.33,0.22,-0.40,9.60
-0.55,0.43,0.38,0.12,-0.36,9.37
-0.66,0.92,0.32,0.11,-0.22,9.45
-0.74,0.99,0.30,-0.18,-0.20,9.55
-0.55,0.59,0.21,-0.29,-0.34,9.42
0.09,0.24,0.26,-0.14,-0.43,9.35
0.51,0.16,0.24,0.05,-0.34,9.58
0.41,0.24,0.20,-0.02,-0.06,9.58
-0.15,-0.03,0.13,-0.04,-0.06,9.86
-0.42,-0.21,0.14,-0.19,-0.17,9.82
-0.13,-0.23,0.16,-0.15,-0.20,10.00
-0.36,-0.69,0.11,-0.17,-0.11,10.08
-0.58,-0.88,0.09,-0.13,-0.24,9.98
-0.45,-0.92,0.11,-0.06,-0.37,9.80
-0.18,-0.79,0.10,0.03,-0.40,9.70
-0.13,-0.27,0.10,0.11,-0.02,10.11
-0.72,-0.01,0.12,0.04,0.04,10.33
-1.33,-0.09,0.15,0.02,-0.17,10.40
-1.25,-0.24,0.19,-0.11,-0.49,10.39
-0.57,-0.45,0.22,-0.20,-0.54,10.24
-0.39,-1.07,0.11,-0.14,0.23,9.99
-1.25,-1.56,0.14,-0.05,0.16,9.41
-1.60,-1.46,0.22,0.12,-0.35,8.97
-0.24,0.24,0.27,0.44,-0.64,8.32
0.62,1.01,0.31,0.11,-0.35,8.40
0.69,1.45,0.31,0.21,0.03,8.83
0.13,1.69,0.23,0.15,0.16,9.23
-0.33,1.69,0.22,-0.06,-0.65,9.58
0.69,1.43,0.19,-0.33,-0.79,9.53
1.93,0.94,0.20,-0.23,-0.54,9.74
2.55,0.67,0.21,-0.01,-0.03,10.22
1.75,0.48,0.21,-0.15,0.31,10.12
0.11,-0.23,0.11,0.02,-0.02,10.01
0.08,-0.37,0.12,-0.21,-0.48,9.85
0.59,-0.41,0.05,-0.04,-0.58,10.16
1.09,-1.18,0.23,-0.39,-0.00,10.57
0.33,-1.77,0.24,-0.16,0.01,10.58
0.05,-1.82,0.28,0.06,-0.24,10.25
0.44,-1.33,0.23,0.06,-0.48,9.83
0.91,0.13,0.30,0.33,-0.15,9.95
0.37,0.64,0.30,0.26,0.07,10.15
-0.11,0.93,0.38,0.17,0.09,10.42
-0.51,1.00,0.46,-0.01,-0.11,10.50
-0.69,0.77,0.43,-0.15,-0.36,10.26
0.40,0.53,0.39,0.12,-0.50,9.83
0.52,0.88,0.36,0.39,-0.25,9.70
0.39,1.15,0.39,-0.15,-0.02,9.05
0.39,0.68,0.24,0.22,-0.22,8.99
0.63,0.83,0.25,0.19,-0.45,8.84
1.01,0.92,0.30,0.03,-0.60,8.85
1.68,0.74,0.32,-0.21,-0.46,8.94
2.26,0.27,0.16,-0.05,-0.02,9.47
2.11,0.52,0.18,-0.17,0.00,9.46
1.60,0.60,0.17,-0.16,-0.08,9.60
1.42,0.50,0.09,-0.01,-0.15,9.88
1.72,0.40,0.05,-0.04,-0.11,10.14
0.75,0.08,0.13,-0.21,0.04,10.67
0.35,-0.12,0.15,-0.34,0.02,10.63
0.22,-0.32,0.18,-0.24,-0.08,10.80
-0.64,-0.32,0.18,-0.08,0.05,10.65
-0.95,-0.27,0.17,-0.11,-0.02,10.48
-1.64,-0.27,0.08,-0.05,-0.08,10.41
-1.98,-0.13,0.15,0.05,-0.14,10.58
-2.13,-0.30,0.20,-0.31,-0.34,10.52
-1.82,-0.90,0.25,-0.35,-0.18,10.34
-1.88,-1.46,0.23,-0.24,0.03,10.22
-2.23,-1.69,0.23,-0.28,0.06,9.86
-2.75,-1.63,0.25,-0.06,-0.20,9.57
-2.21,-1.10,0.24,0.02,-0.56,8.92
-1.20,-0.96,0.32,-0.11,-0.45,8.76
-0.73,-0.72,0.34,0.10,-0.19,8.89
-1.26,0.34,0.26,-0.02,-0.16,8.78
-1.00,0.61,0.29,0.04,-0.51,8.82
-0.36,0.60,0.21,0.01,-0.58,9.04
0.62,0.81,0.19,-0.14,-0.28,9.43
-0.24,0.45,0.17,-0.15,0.07,10.38
-0.43,-0.11,0.18,-0.48,-0.08,10.27
-0.47,-0.93,0.19,-0.27,-0.36,10.30
-0.20,-1.17,0.10,0.16,-0.30,10.54
-0.08,-1.02,0.16,0.20,-0.02,10.29
-1.40,-0.94,0.25,-0.03,-0.02,10.15
-1.66,-0.68,0.22,0.02,-0.16,10.21
-1.70,-0.69,0.22,0.02,-0.21,10.33
-1.57,-1.39,0.30,0.02,-0.33,10.00
-1.57,-1.28,0.31,0.39,-0.38,9.85
-1.45,-0.67,0.32,0.16,-0.31,9.32
-1.43,-0.04,0.37,0.28,-0.25,9.21
-1.38,0.82,0.45,0.07,0.01,9.27
-1.89,0.93,0.46,0.11,-0.10,9.33
-2.07,0.98,0.44,0.31,-0.42,9.47
-1.35,0.99,0.46,-0.04,-0.59,9.11
-0.76,0.72,0.46,-0.20,-0.58,9.03
-0.06,-0.05,0.30,-0.24,-0.00,9.09
-0.38,-0.70,0.28,-0.07,-0.03,9.04
-0.52,-0.95,0.28,0.00,-0.33,8.83
-0.38,-0.88,0.33,-0.11,-0.68,8.45
1.82,-0.34,0.21,0.16,-0.76,8.57
2.75,0.23,0.25,0.15,-0.36,9.14
2.50,0.79,0.22,-0.05,0.03,9.73
1.13,0.61,0.04,-0.41,0.00,10.69
1.00,-0.16,0.04,-0.42,-0.33,10.75
1.45,-0.69,0.07,-0.49,-0.45,10.56
1.96,-0.91,0.06,-0.13,-0.28,10.53
1.69,-0.89,0.00,0.07,0.03,10.50
-0.14,-0.43,-0.03,-0.05,0.16,10.71
-0.85,-0.71,-0.03,-0.21,-0.08,10.83
-0.97,-1.02,-0.06,-0.42,-0.32,10.78
-0.80,-1.81,0.01,-0.11,-0.48,10.48
-0.46,-2.20,-0.00,-0.42,-0.43,9.70
-0.20,-2.32,0.01,0.13,-0.34,9.65
-0.30,-1.73,0.04,0.62,-0.14,9.79
-1.15,-1.07,0.16,-0.16,-0.05,9.16
-1.04,-1.23,0.12,0.20,-0.40,9.55
-0.60,-1.05,0.11,-0.01,-0.64,9.35
-0.12,-0.81,0.20,-0.00,-0.74,9.21
0.66,-0.72,0.23,-0.03,-0.54,9.16
1.33,-1.25,0.15,0.20,-0.43,8.78
1.64,-0.44,0.17,0.65,-0.53,8.73
2.47,0.55,0.28,0.45,-0.56,8.51
3.17,1.16,0.21,0.04,-0.34,8.81
2.21,0.77,0.04,-0.06,0.26,10.25
1.26,0.36,0.05,-0.01,0.00,10.86
0.78,-0.18,0.17,-0.05,-0.40,11.01
1.39,-0.76,0.10,-0.05,-0.28,10.59
1.01,-0.61,0.16,0.32,0.03,10.65
0.17,0.01,0.11,0.45,0.22,10.70
-1.22,0.64,0.07,0.54,0.10,10.89
-2.88,0.63,0.07,-0.23,-0.71,10.73
-2.31,-0.12,0.16,-0.15,-1.01,10.71
-1.46,-0.93,0.16,-0.19,-1.03,10.31
-0.81,-1.26,0.15,0.06,-0.72,9.93
-0.36,-1.30,0.24,-0.07,-0.41,9.33
-0.73,-1.16,0.12,0.61,-0.18,9.17
-1.00,-0.37,0.15,0.56,-0.27,9.09
-1.00,0.07,0.23,0.09,-0.48,8.92
0.37,-0.22,0.31,-0.10,-0.71,9.56
1.03,-0.59,0.35,-0.20,-0.58,9.68
1.62,-0.58,0.34,-0.20,-0.37,9.67
1.67,-0.73,0.26,-0.14,-0.10,9.41
0.65,-0.66,0.19,0.13,-0.24,9.19
0.28,0.08,0.17,0.67,-0.66,9.39
0.73,1.05,0.32,0.45,-0.87,9.69
1.02,1.51,0.33,-0.17,-0.78,10.06
1.06,1.30,0.23,-0.31,-0.34,10.83
-0.26,0.39,0.21,-0.24,-0.13,11.73
-1.22,-0.02,0.18,-0.21,-0.11,11.41
-1.41,-0.32,0.17,-0.29,-0.34,10.80
-0.76,-0.82,0.18,0.23,-0.33,9.89
-1.07,-0.40,0.16,0.26,-0.14,9.54
-1.74,-0.14,0.10,0.13,-0.16,9.04
-1.93,-0.06,0.16,0.18,-0.39,8.94
-1.35,0.25,0.05,0.09,-0.76,8.80
-0.70,0.53,0.13,0.09,-0.88,8.98
-0.34,0.40,0.13,-0.10,-0.95,9.14
-0.19,0.03,0.09,-0.14,-1.00,9.33
0.58,-0.24,0.08,-0.09,-1.07,9.40
2.16,-0.78,0.14,0.09,-0.63,9.46
1.89,-0.54,0.15,0.35,-0.24,9.81
1.22,0.02,0.18,0.16,-0.10,9.77
0.81,-0.26,0.25,-0.22,-0.38,10.05
1.00,-0.48,0.19,0.03,-0.50,10.46
1.05,-0.54,0.23,0.16,-0.42,10.54
0.73,-0.32,0.34,0.09,-0.27,10.57
-0.25,-0.13,0.35,0.10,-0.32,10.38
-0.58,0.38,0.35,0.33,-0.51,10.57
-0.93,0.89,0.35,0.08,-0.65,10.17
-1.02,0.98,0.32,-0.12,-0.79,9.88
-0.72,0.89,0.26,-0.00,-0.88,9.78
-0.51,0.73,0.17,0.15,-0.92,9.49
-0.04,0.64,0.24,0.01,-0.82,9.27
0.34,0.25,0.19,-0.27,-0.63,9.06
0.39,-0.36,0.20,0.00,-0.36,9.26
0.01,-0.48,0.13,0.03,-0.48,9.15
0.32,-0.46,0.14,0.20,-0.68,9.25
0.90,-0.45,0.20,-0.07,-0.81,9.10
1.27,-0.13,0.16,0.22,-0.47,9.83
0.84,0.25,0.20,0.30,-0.39,10.16
-0.11,0.46,0.23,-0.02,-0.52,10.25
-0.13,0.57,0.22,-0.26,-0.93,10.14
0.38,0.30,0.22,0.05,-1.21,10.22
1.16,0.48,0.20,-0.18,-0.40,10.33
-0.09,0.18,0.17,0.10,-0.19,10.74
-1.10,-0.19,0.18,0.04,-0.37,10.75
-0.87,-0.75,0.30,-0.01,-0.79,10.52
-0.50,-0.97,0.34,-0.13,-0.64,10.35
-0.79,-1.33,0.31,-0.25,-0.31,10.27
-1.54,-1.49,0.27,-0.09,-0.19,10.35
-2.18,-1.96,0.24,-0.17,-0.95,9.45
-1.42,-1.62,0.28,0.34,-1.23,9.40
-0.61,-1.12,0.36,0.20,-1.18,8.97
0.23,-0.44,0.38,-0.03,-0.88,8.84
0.19,0.15,0.27,0.19,-0.57,9.06
-0.53,1.41,0.14,0.11,-0.43,9.04
-1.01,1.84,0.07,0.20,-0.86,9.02
-0.62,2.01,0.05,0.18,-1.04,8.98
0.98,2.30,0.10,0.14,-0.56,9.67
0.60,1.93,0.07,-0.21,-0.12,9.98
-0.38,1.24,-0.03,-0.28,-0.14,10.36
-1.28,0.37,-0.14,-0.12,-0.58,10.46
0.08,-0.67,-0.04,-0.04,-1.28,10.22
0.63,-1.14,-0.01,-0.07,-0.94,10.23
0.57,-1.45,0.00,-0.11,-0.49,10.40
-0.14,-1.80,0.02,-0.10,-0.38,10.44
-0.84,-2.28,-0.01,-0.25,-0.67,10.14
0.21,-2.15,0.09,0.32,-1.31,10.01
1.02,-1.53,0.18,0.28,-0.96,9.98
1.02,-0.92,0.25,0.03,-0.48,10.02
-0.39,-0.56,0.33,-0.00,-0.35,9.94
-0.64,-0.29,0.32,0.09,-0.73,9.79
-0.53,0.07,0.28,0.20,-1.09,9.60
-0.05,0.38,0.35,0.24,-1.23,9.38
0.72,0.39,0.36,-0.16,-1.00,9.07
1.04,0.35,0.33,0.06,-0.76,9.27
0.86,0.34,0.30,0.14,-0.58,9.39
0.24,0.29,0.26,-0.15,-0.65,9.09
-0.20,0.18,0.24,0.04,-1.02,9.04
1.14,0.51,0.27,0.38,-1.27,9.08
1.80,1.10,0.32,0.53,-0.88,9.48
1.56,1.75,0.34,0.30,-0.42,9.75
0.42,1.86,0.30,-0.20,-0.22,9.73
-0.80,1.51,0.09,0.22,-1.19,9.90
0.01,1.41,0.20,0.38,-1.48,9.66
1.09,1.63,0.30,0.21,-1.31,9.54
0.20,1.60,0.30,0.06,-0.36,9.81
-1.05,1.51,0.21,-0.14,-0.54,10.05
-1.86,1.12,0.15,0.09,-1.18,10.41
-1.46,0.75,0.21,-0.06,-1.69,10.63
0.32,-0.37,0.28,-0.23,-1.43,10.56
0.67,-0.80,0.34,-0.22,-0.86,10.52
-0.22,-1.09,0.28,-0.12,-0.54,10.50
-1.31,-0.94,0.21,-0.01,-0.60,10.59
-2.01,-0.76,0.23,-0.17,-1.07,10.42
-0.82,-1.06,0.32,-0.17,-1.53,10.73
-0.39,-1.25,0.38,-0.46,-1.12,10.58
-0.86,-1.55,0.30,-0.45,-0.62,10.58
-2.80,-1.86,0.18,-0.26,-1.09,9.83
-2.85,-1.58,0.14,-0.02,-1.55,9.47
-2.03,-0.93,0.18,0.16,-1.68,9.20
-1.44,-0.38,0.19,0.15,-1.65,9.05
-0.99,0.63,0.10,-0.12,-1.18,8.94
-1.25,0.98,0.07,0.08,-1.11,9.22
-1.40,1.17,0.06,0.09,-1.19,9.30
-1.17,1.02,0.03,-0.17,-1.33,9.07
-0.58,0.51,-0.01,-0.21,-1.36,9.01
-0.35,-0.09,-0.14,0.00,-1.34,9.11
-0.07,-0.10,-0.11,0.14,-1.30,9.17
0.02,-0.19,-0.00,0.22,-1.24,9.47
0.04,-0.72,0.10,0.19,-1.24,9.63
0.18,-0.40,0.19,0.62,-1.39,10.01
0.33,0.31,0.21,0.34,-1.37,9.70
0.24,0.74,0.21,0.02,-1.32,9.48
-0.00,0.97,0.21,0.30,-1.01,10.09
-0.44,1.06,0.17,0.16,-0.94,10.20
-0.99,0.97,0.21,0.16,-1.02,10.33
-1.48,0.56,0.21,-0.13,-1.21,10.11
-1.43,0.05,0.17,-0.15,-1.35,9.97
-1.09,-0.16,0.25,0.18,-1.17,10.18
-1.58,-0.23,0.24,-0.00,-0.92,10.18
-2.05,-0.50,0.28,-0.05,-0.99,10.26
-2.42,-1.07,0.27,-0.18,-1.59,9.82
-1.77,-1.10,0.25,-0.14,-1.79,9.69
-1.11,-1.17,0.22,-0.15,-1.70,9.53
-0.83,-1.34,0.19,-0.22,-1.49,9.28
-0.39,-1.38,0.14,-0.10,-1.28,9.09
-0.46,-1.25,0.12,-0.06,-1.43,8.91
-0.16,-0.81,0.11,-0.09,-1.61,8.77
0.15,-0.47,0.06,0.11,-1.71,8.79
0.41,-0.18,0.07,0.07,-1.65,8.78
1.51,0.36,0.07,0.18,-1.70,9.02
1.81,1.13,0.04,0.36,-1.53,9.57
1.64,1.70,0.05,0.12,-1.30,9.89
0.79,1.16,0.07,-0.12,-1.70,10.66
0.91,0.69,0.06,-0.01,-1.88,10.60
1.24,0.33,0.10,-0.08,-1.70,10.32
1.58,0.18,0.08,0.11,-1.34,10.40
-0.44,-0.13,0.07,0.33,-1.21,10.51
-1.11,0.12,0.12,0.24,-1.59,10.52
-0.63,0.18,0.19,-0.12,-1.90,10.44
0.14,-0.31,0.15,-0.09,-1.85,10.74
0.16,-0.78,0.17,-0.12,-1.41,10.90
-1.21,-1.58,0.07,-0.11,-1.46,9.89
-1.13,-1.63,0.17,0.11,-1.89,9.44
-0.51,-1.31,0.10,0.33,-2.04,9.01
0.64,-0.35,0.21,0.07,-1.66,8.82
0.36,-0.32,0.12,-0.09,-1.40,8.99
-0.15,-0.36,0.10,-0.03,-1.55,9.22
-0.34,-0.35,0.07,0.09,-1.97,9.26
1.51,-0.25,0.17,-0.11,-2.02,8.91
2.03,-0.23,0.12,0.04,-1.74,8.97
2.09,0.27,0.16,0.49,-1.48,9.21
1.47,1.15,0.19,0.70,-1.47,9.48
0.86,2.00,0.19,0.24,-1.59,9.33
1.31,2.62,0.12,0.04,-1.92,10.15
1.48,2.35,0.11,-0.19,-1.62,10.42
0.86,1.72,0.08,-0.29,-1.42,10.73
-0.52,0.09,0.04,-0.02,-1.98,10.30
-0.10,-0.24,0.02,0.11,-2.33,10.01
0.97,-0.26,0.05,0.14,-2.14,9.86
1.67,-0.13,0.09,-0.05,-1.61,10.22
-0.72,-0.65,0.16,0.05,-1.33,10.94
-1.21,-0.65,0.16,-0.08,-1.84,10.92
-0.77,-0.77,0.13,-0.25,-2.29,10.34
0.22,-1.02,0.14,-0.00,-2.19,10.17
0.84,-0.75,0.16,0.08,-1.64,10.15
-1.41,-0.20,0.11,0.19,-1.47,9.89
-1.77,0.04,0.14,0.28,-2.06,9.75
-1.19,0.41,0.20,0.00,-2.42,9.22
0.94,1.09,0.13,0.12,-2.03,9.38
0.54,1.38,0.10,0.19,-1.65,9.53
-0.45,1.54,0.04,0.28,-1.54,9.69
-0.77,1.80,0.05,0.01,-1.96,9.64
0.31,1.31,0.07,0.12,-2.23,9.77
0.56,1.39,0.03,-0.13,-1.94,9.95
-0.22,0.86,-0.03,-0.09,-1.73,10.00
-0.75,0.22,0.02,-0.18,-1.84,10.13
-0.93,-0.60,0.04,-0.26,-2.19,9.75
0.21,-1.30,-0.01,-0.18,-2.19,9.60
0.15,-1.72,-0.01,-0.37,-1.92,9.46
-0.40,-2.18,-0.00,-0.21,-1.80,9.71
-1.39,-1.95,0.11,0.33,-2.20,9.88
-0.90,-1.32,0.22,-0.02,-2.22,9.71
-0.23,-0.81,0.24,-0.36,-2.35,9.40
-0.00,-0.47,0.10,0.05,-2.15,9.68
-1.08,1.21,0.18,0.15,-1.75,9.74
-1.63,1.36,0.25,0.21,-2.22,9.56
-1.00,1.55,0.29,0.34,-2.60,9.48
0.13,1.90,0.27,0.11,-2.55,9.13
0.69,2.25,0.19,0.10,-2.11,9.27
-0.41,1.95,-0.04,-0.15,-1.78,9.50
-1.09,1.18,-0.05,0.10,-2.12,9.86
-0.83,0.64,0.10,0.24,-2.56,10.13
0.67,-0.23,0.11,-0.17,-2.19,10.45
0.16,-0.65,0.02,-0.23,-1.67,10.79
-1.37,-1.18,-0.09,-0.39,-1.58,10.61
-2.31,-1.53,-0.12,-0.10,-2.05,10.43
-1.61,-1.60,0.09,0.22,-2.74,9.82
-1.02,-0.90,0.10,0.17,-2.53,9.81
-0.92,-0.31,0.09,-0.03,-2.35,9.58
-0.95,0.05,-0.00,-0.21,-2.30,9.48
-1.16,0.06,-0.03,0.02,-2.43,9.51
-1.02,0.21,-0.01,0.16,-2.59,9.45
-0.73,0.33,0.07,0.18,-2.65,9.28
-0.35,0.52,0.08,-0.05,-2.60,9.16
-0.27,0.71,0.06,0.06,-2.56,9.24
-0.29,0.85,0.06,-0.06,-2.59,9.47
-0.04,0.55,0.09,0.06,-2.66,9.55
0.17,0.29,0.11,0.10,-2.60,9.58
-0.08,0.07,0.10,-0.03,-2.45,9.46
-0.36,-0.04,0.06,-0.05,-2.60,9.48
-0.47,-0.24,0.05,0.09,-2.82,9.58
-0.15,-0.21,0.09,0.14,-2.87,9.79
-0.21,-0.20,0.13,-0.17,-2.51,10.04
-0.76,-0.49,0.04,-0.38,-2.48,10.06
-1.42,-0.79,-0.04,-0.29,-2.72,9.99
-1.57,-0.93,-0.07,-0.18,-2.95,9.81
-1.15,-0.99,-0.07,-0.08,-3.01,9.55
-0.17,-0.89,-0.05,0.03,-2.79,9.38
-0.16,-0.70,-0.02,0.07,-2.57,9.39
-0.47,-0.34,0.04,0.05,-2.57,9.46
-0.82,0.10,-0.07,-0.05,-2.95,9.46
-0.29,0.17,-0.01,0.16,-3.04,9.61
0.13,0.35,0.03,0.25,-2.94,9.61
0.15,0.56,0.05,0.19,-2.70,9.60
-0.54,0.82,0.08,-0.01,-2.85,9.81
-0.57,0.70,0.05,-0.07,-3.11,9.85
-0.10,0.62,0.05,0.08,-3.22,9.92
0.28,0.42,0.05,0.21,-2.99,9.97
0.28,0.23,0.07,0.06,-2.64,9.88
-0.94,-0.29,0.05,0.01,-2.80,9.97
-0.96,-0.54,0.04,-0.08,-3.14,9.93
-0.46,-0.73,0.00,-0.06,-3.28,9.92
0.10,-1.00,0.00,-0.05,-2.73,9.83
-0.49,-1.08,-0.01,0.06,-2.61,9.91
-1.16,-0.98,-0.02,0.01,-2.85,9.88
-1.29,-0.76,-0.04,-0.02,-3.16,9.78
-0.70,-0.46,0.03,-0.00,-3.37,9.55
-0.33,-0.27,0.01,0.02,-3.35,9.48
-0.04,0.08,0.02,0.12,-3.22,9.65
0.06,0.35,0.01,0.15,-3.07,9.86
-0.10,0.43,0.05,0.10,-3.01,9.92
-0.34,0.33,0.11,0.02,-3.11,9.62
-0.17,0.29,0.13,0.03,-3.11,9.55
-0.09,0.36,0.09,0.08,-3.05,9.68
-0.52,-0.08,0.15,-0.06,-2.91,9.84
-0.96,-0.51,0.15,-0.02,-3.05,9.70
-1.06,-0.72,0.18,0.10,-3.22,9.61
-0.93,-0.57,0.22,0.14,-3.34,9.62
-0.67,-0.54,0.25,-0.05,-3.31,9.69
-0.45,-0.66,0.24,-0.12,-3.16,9.57
-0.44,-0.66,0.21,0.01,-3.03,9.54
-0.67,-0.45,0.16,0.05,-3.01,9.52
-0.89,-0.25,0.14,-0.07,-3.15,9.44
-0.38,-0.29,0.11,-0.03,-3.27,9.39
-0.08,-0.30,0.10,0.10,-3.19,9.32
0.25,-0.05,0.15,0.19,-3.10,9.30
0.27,0.40,0.02,-0.12,-3.06,9.28
0.35,0.34,-0.00,-0.10,-3.16,9.48
0.56,0.17,-0.02,-0.02,-3.25,9.56
0.81,0.05,-0.02,0.11,-3.18,9.64
0.87,0.14,-0.05,-0.04,-3.02,9.77
0.65,0.08,-0.09,-0.16,-2.97,10.00
0.40,-0.15,-0.15,-0.15,-2.96,10.29
0.11,-0.51,-0.14,-0.13,-3.02,10.42
-0.02,-0.98,-0.04,-0.06,-3.06,10.21
0.25,-1.07,0.06,0.34,-2.87,9.87
-0.05,-0.60,0.09,0.12,-2.75,9.63
-0.40,-0.22,0.05,-0.09,-2.78,9.70
-0.70,-0.40,0.06,-0.10,-3.12,9.84
-0.44,-0.67,0.15,0.26,-3.03,9.80
-0.20,-0.37,0.25,0.48,-2.83,9.74
-0.58,0.05,0.25,0.20,-2.71,9.43
-1.39,0.77,0.15,0.08,-3.20,9.66
-0.92,0.62,0.22,0.03,-3.40,9.64
-0.03,0.46,0.31,0.24,-3.28,9.65
0.61,0.49,0.37,0.45,-2.85,9.61
0.40,0.79,0.36,0.27,-2.47,9.39
-0.71,1.01,0.16,0.04,-3.02,9.33
-0.48,0.88,0.10,0.10,-3.38,9.54
0.61,0.67,0.14,0.02,-3.37,9.59
1.51,0.28,0.25,0.04,-3.12,9.70
0.79,-0.18,0.09,-0.10,-2.45,9.65
0.02,-0.31,0.03,-0.26,-2.76,9.70
0.04,-0.47,-0.06,-0.15,-3.17,9.95
1.35,-0.94,0.04,-0.09,-2.90,9.81
1.18,-0.99,0.12,0.10,-2.42,9.91
0.21,-0.79,0.12,0.15,-2.24,9.98
-0.65,-0.47,0.11,-0.16,-2.50,9.95
-0.30,-0.40,0.10,-0.21,-3.09,9.89
0.22,-0.38,0.14,-0.00,-2.76,9.88
0.03,-0.02,0.16,0.30,-2.29,10.07
-0.90,0.34,0.26,0.14,-2.18,10.07
-1.89,0.13,0.24,-0.17,-3.12,10.02
-1.05,0.06,0.25,-0.08,-3.23,9.88
-0.43,0.12,0.23,-0.01,-2.91,9.74
-0.55,0.14,0.23,0.10,-2.52,9.72
-1.65,-0.13,0.22,-0.02,-2.85,9.63
-1.25,-0.30,0.27,-0.06,-3.25,9.47
-0.38,-0.51,0.18,-0.03,-3.23,9.28
0.48,-0.62,0.19,-0.04,-2.92,9.14
0.82,-0.59,0.13,-0.00,-2.60,9.14
0.50,-0.58,0.06,0.05,-2.57,9.06
0.57,-0.52,-0.01,0.07,-2.75,9.08
1.09,-0.30,0.02,0.08,-2.90,9.09
1.64,-0.04,0.01,0.11,-2.87,9.28
1.70,0.47,-0.01,0.00,-2.39,9.65
1.10,0.45,-0.02,0.07,-2.32,9.87
0.62,0.48,-0.02,0.13,-2.49,9.99
0.57,0.75,0.03,0.19,-2.84,10.12
0.88,0.85,0.03,0.03,-2.67,10.05
0.76,0.61,0.05,0.01,-2.35,10.16
0.25,0.34,0.05,0.04,-2.13,10.35
-1.01,-0.08,0.00,0.13,-2.32,10.02
-1.05,-0.21,0.01,0.09,-2.62,9.82
-0.65,-0.34,0.06,0.06,-2.78,9.76
-0.27,-0.43,0.11,0.21,-2.69,9.96
-0.19,-0.39,0.14,0.13,-2.39,9.86
-0.93,-0.52,0.19,-0.04,-2.45,9.70
-0.95,-0.56,0.13,0.05,-2.70,9.59
-0.47,-0.32,0.15,0.17,-2.81,9.54
0.59,0.25,0.21,-0.09,-2.47,9.36
0.65,0.19,0.21,0.00,-2.24,9.48
0.42,0.28,0.21,0.16,-2.11,9.64
0.22,0.56,0.24,0.08,-2.16,9.62
0.58,0.52,0.17,-0.11,-2.51,9.48
1.03,0.57,0.15,0.02,-2.41,9.64
1.19,0.67,0.16,0.04,-2.24,9.82
0.94,0.55,0.13,-0.03,-2.07,9.94
0.27,-0.11,0.07,-0.12,-2.18,9.89
0.14,-0.24,0.01,0.02,-2.36,9.93
0.19,-0.25,0.05,0.03,-2.48,9.96
0.35,-0.33,0.03,-0.10,-2.41,10.00
-0.07,-0.75,0.00,-0.00,-2.11,10.03
-0.41,-0.74,0.02,-0.05,-2.13,9.85
-0.57,-0.74,0.01,-0.07,-2.29,9.75
-0.36,-0.76,-0.01,-0.12,-2.37,9.75
-0.06,-0.57,-0.05,0.12,-2.15,9.72
-0.17,-0.37,-0.04,-0.04,-2.10,9.49
-0.08,-0.37,0.02,-0.13,-2.21,9.38
0.11,-0.45,-0.00,0.14,-2.27,9.63
0.44,-0.27,0.04,0.10,-2.18,9.55
0.77,-0.15,0.05,-0.05,-2.05,9.35
0.81,-0.23,-0.02,0.00,-2.04,9.44
0.74,-0.25,-0.02,0.18,-2.11,9.64
1.15,-0.26,0.06,-0.01,-2.11,9.39
1.25,-0.52,0.09,0.03,-2.02,9.50
1.16,-0.64,0.05,0.22,-1.93,9.74
0.96,-0.59,0.09,0.27,-1.89,9.92
0.38,-0.60,0.17,0.05,-2.05,9.96
0.36,-0.63,0.19,0.17,-2.15,10.07
0.50,-0.45,0.25,0.35,-2.12,10.29
0.46,-0.10,0.33,0.27,-1.93,10.39
-0.05,0.11,0.36,0.05,-1.82,10.30
-0.86,0.30,0.29,0.19,-2.08,10.31
-0.75,0.65,0.32,0.19,-2.22,10.16
-0.61,0.92,0.32,0.22,-2.21,10.10
-0.63,1.02,0.26,0.00,-2.03,9.83
-0.85,0.91,0.23,0.13,-2.08,9.85
-0.83,0.85,0.21,0.09,-2.18,9.67
-0.41,0.67,0.18,-0.02,-2.23,9.41
0.25,0.30,0.07,0.04,-2.06,9.32
0.21,0.10,0.06,0.04,-2.00,9.28
0.17,-0.00,0.00,0.07,-2.05,9.44
0.16,-0.16,-0.03,-0.05,-2.18,9.41
0.39,-0.39,-0.05,-0.08,-2.29,9.40
1.09,-0.48,-0.06,-0.01,-2.01,9.32
0.87,-0.35,-0.09,0.08,-1.86,9.48
0.48,-0.10,-0.05,0.07,-1.91,9.61
0.41,0.08,-0.00,-0.06,-2.20,9.65
0.71,0.17,0.01,0.02,-2.16,9.69
0.77,0.41,0.06,0.04,-1.96,9.70
0.48,0.69,0.10,0.01,-1.83,9.83
-0.31,0.64,0.10,-0.11,-2.06,9.92
-0.17,0.48,0.12,-0.07,-2.24,9.81
0.22,0.40,0.18,-0.01,-2.21,9.68
0.45,0.40,0.18,0.05,-2.01,9.77
0.19,0.28,0.14,-0.07,-1.83,9.85
-0.49,-0.38,0.07,-0.13,-2.07,10.00
-0.36,-0.69,0.06,-0.03,-2.22,9.87
0.03,-0.73,0.09,0.11,-2.24,9.75
0.26,-0.60,0.14,-0.03,-2.02,9.71
0.15,-0.70,0.12,-0.07,-2.00,9.87
0.03,-0.83,0.10,-0.01,-2.07,9.94
0.03,-0.75,0.08,0.06,-2.09,9.82
0.29,-0.31,0.14,0.09,-2.13,9.60
0.47,-0.02,0.15,0.08,-2.09,9.70
0.48,0.21,0.14,-0.01,-2.03,9.73
0.32,0.27,0.09,-0.01,-1.98,9.75
0.16,0.29,0.06,0.05,-2.01,9.68
0.28,0.49,0.08,0.20,-2.21,9.60
0.59,0.62,0.10,0.11,-2.18,9.61
0.78,0.55,0.09,-0.03,-2.01,9.63
0.18,0.11,-0.01,0.03,-1.82,9.78
-0.13,-0.06,-0.05,0.09,-1.98,9.69
-0.01,-0.19,-0.04,0.24,-2.19,9.67
0.38,-0.18,0.02,0.20,-2.21,9.60
0.53,-0.21,-0.00,0.07,-1.87,9.78
0.14,-0.29,-0.05,0.03,-1.85,9.93
-0.30,-0.40,-0.07,0.04,-2.00,9.93
-0.27,-0.45,-0.07,0.14,-2.17,9.81
0.09,-0.34,-0.02,0.23,-2.21,9.67
0.28,0.33,0.04,0.22,-2.01,9.85
-0.01,0.59,0.06,0.10,-2.02,10.00
-0.20,0.62,0.10,0.02,-2.11,9.97
0.17,0.48,0.19,0.17,-2.21,9.67
0.36,0.68,0.23,0.31,-2.14,9.66
0.33,0.96,0.28,0.18,-2.12,9.75
