angleSpeedx_y_z;lineAccx_y_z
-0.01,-0.00,0.06,0.05,-0.15,9.80
-0.03,-0.02,0.07,0.05,-0.15,9.80
-0.01,0.01,0.07,0.05,-0.15,9.80
-0.02,0.00,0.06,0.05,-0.16,9.80
-0.00,-0.02,0.06,0.04,-0.16,9.80
0.01,-0.00,0.04,0.05,-0.16,9.80
-0.00,-0.00,0.05,0.05,-0.15,9.80
-0.03,0.01,0.06,0.05,-0.15,9.80
-0.01,0.02,0.05,0.06,-0.16,9.80
0.01,0.01,0.06,0.04,-0.16,9.80
0.03,0.00,0.06,0.05,-0.16,9.81
0.01,-0.02,0.07,0.05,-0.16,9.81
0.00,-0.03,0.06,0.05,-0.15,9.81
0.03,-0.04,0.05,0.05,-0.15,9.81
0.03,-0.04,0.05,0.05,-0.16,9.81
0.03,-0.05,0.05,0.05,-0.15,9.81
0.01,-0.04,0.05,0.05,-0.15,9.81
0.01,-0.01,0.03,0.06,-0.14,9.81
0.00,-0.02,0.06,0.05,-0.15,9.81
0.01,-0.02,0.08,0.06,-0.15,9.81
0.02,-0.01,0.06,0.06,-0.15,9.81
0.02,-0.02,0.06,0.06,-0.14,9.81
0.02,0.00,0.07,0.06,-0.14,9.81
0.03,-0.01,0.09,0.06,-0.14,9.81
0.01,-0.02,0.07,0.05,-0.15,9.81
-0.02,-0.04,0.06,0.06,-0.14,9.81
-0.01,-0.04,0.07,0.06,-0.15,9.80
-0.02,-0.05,0.06,0.06,-0.15,9.79
-0.00,-0.04,0.05,0.06,-0.15,9.80
-0.03,-0.01,0.03,0.05,-0.15,9.80
-0.00,0.01,0.03,0.06,-0.14,9.80
0.01,-0.01,0.05,0.06,-0.15,9.79
0.00,0.01,0.05,0.05,-0.15,9.79
0.02,0.01,0.05,0.05,-0.15,9.80
-0.02,-0.00,0.04,0.05,-0.15,9.81
-0.03,-0.00,0.05,0.05,-0.15,9.81
-0.02,0.00,0.03,0.05,-0.16,9.81
0.00,0.02,0.02,0.06,-0.17,9.81
0.01,-0.01,0.05,0.06,-0.16,9.81
0.02,-0.01,0.05,0.06,-0.16,9.82
0.03,-0.03,0.06,0.05,-0.16,9.81
0.03,-0.01,0.07,0.05,-0.16,9.81
0.02,-0.01,0.05,0.06,-0.16,9.80
0.03,-0.00,0.05,0.06,-0.16,9.80
0.01,-0.02,0.03,0.06,-0.16,9.79
0.01,-0.02,0.03,0.07,-0.16,9.78
0.03,-0.00,0.04,0.07,-0.16,9.78
0.05,0.03,0.07,0.07,-0.15,9.78
0.05,0.03,0.06,0.08,-0.15,9.79
0.05,0.05,0.08,0.07,-0.15,9.78
0.12,0.05,0.09,0.09,-0.13,9.79
0.15,0.06,0.12,0.09,-0.09,9.80
0.07,0.06,0.13,0.07,-0.08,9.80
0.02,0.08,0.13,0.07,-0.09,9.82
0.01,0.04,0.13,0.01,-0.15,9.83
0.06,-0.02,0.14,0.04,-0.15,9.86
0.05,-0.04,0.12,0.03,-0.15,9.86
0.05,-0.10,0.12,0.02,-0.07,9.85
-0.12,-0.09,0.09,0.00,-0.08,9.84
-0.22,-0.09,0.07,-0.00,-0.14,9.82
-0.19,-0.07,0.04,0.03,-0.19,9.83
-0.06,-0.03,0.04,0.01,-0.20,9.81
0.02,-0.02,0.04,0.02,-0.13,9.80
-0.03,0.04,0.01,0.03,-0.10,9.80
-0.10,0.06,-0.03,0.03,-0.14,9.76
-0.05,0.07,-0.02,0.05,-0.17,9.77
0.10,0.07,-0.01,0.06,-0.19,9.76
0.22,0.09,0.00,0.08,-0.16,9.80
0.18,0.05,-0.02,0.05,-0.11,9.81
0.01,-0.07,-0.03,0.10,-0.10,9.84
0.00,-0.04,-0.00,0.11,-0.14,9.82
0.02,-0.05,0.01,0.08,-0.18,9.80
0.07,-0.10,0.01,0.09,-0.16,9.81
0.01,-0.10,0.03,0.10,-0.06,9.84
-0.11,-0.10,0.04,0.10,-0.07,9.84
-0.22,-0.08,0.05,0.09,-0.12,9.80
-0.19,-0.04,0.07,0.08,-0.16,9.77
-0.00,0.04,0.11,0.08,-0.15,9.78
-0.03,0.10,0.11,0.05,-0.11,9.79
-0.11,0.11,0.10,0.04,-0.12,9.79
-0.15,0.11,0.11,0.04,-0.18,9.78
0.11,0.11,0.15,0.04,-0.23,9.77
0.20,0.09,0.16,0.02,-0.18,9.80
0.15,0.06,0.16,0.00,-0.13,9.82
0.05,0.02,0.14,-0.01,-0.12,9.84
0.09,-0.08,0.10,0.00,-0.22,9.83
0.18,-0.12,0.11,0.01,-0.20,9.84
0.19,-0.13,0.09,-0.01,-0.16,9.84
0.13,-0.14,0.07,-0.01,-0.11,9.86
0.01,-0.13,0.04,0.01,-0.11,9.87
-0.07,-0.11,0.02,0.01,-0.17,9.82
-0.03,-0.12,0.01,0.02,-0.18,9.80
-0.01,-0.09,-0.03,0.05,-0.15,9.80
-0.14,0.01,-0.04,0.05,-0.11,9.77
-0.20,0.03,-0.06,0.06,-0.14,9.75
-0.19,0.04,-0.06,0.08,-0.17,9.72
-0.13,0.07,-0.05,0.10,-0.19,9.73
0.01,0.08,-0.02,0.09,-0.17,9.73
0.00,0.04,-0.03,0.11,-0.15,9.75
0.02,0.03,-0.01,0.11,-0.16,9.76
0.06,0.02,0.01,0.11,-0.17,9.77
0.08,-0.01,0.05,0.11,-0.18,9.77
0.18,-0.06,0.05,0.10,-0.16,9.82
0.20,-0.03,0.10,0.10,-0.13,9.85
0.15,-0.06,0.12,0.09,-0.12,9.86
0.11,-0.07,0.12,0.09,-0.16,9.86
0.33,-0.00,0.13,0.07,-0.17,9.83
0.73,-0.03,0.13,-0.01,-0.05,9.70
1.27,-0.21,0.14,-0.05,0.29,9.59
1.34,-0.36,0.15,0.11,0.86,9.45
0.69,-0.15,0.16,0.37,0.85,9.58
-0.10,0.38,0.15,0.36,0.68,9.62
-0.59,0.90,0.13,0.21,0.30,9.74
-0.57,1.06,0.15,-0.02,-0.09,10.04
0.41,0.29,0.11,-0.28,-0.07,10.72
0.23,-0.28,0.10,-0.22,0.18,10.78
-0.31,-0.71,0.07,-0.18,0.24,10.41
-0.24,-0.82,0.02,0.15,-0.03,9.54
0.46,-0.44,0.01,0.21,0.21,9.32
0.73,-0.07,0.05,0.18,0.67,9.36
0.29,0.09,0.03,0.05,1.03,9.41
-0.67,0.01,0.00,0.04,0.69,9.46
-0.18,0.06,0.02,0.05,0.34,9.40
0.56,0.11,0.04,0.04,0.21,9.43
0.99,0.16,0.03,0.06,0.36,9.61
0.90,0.23,0.02,0.05,0.55,9.83
0.31,0.21,0.01,-0.00,0.49,10.04
0.46,0.03,0.02,-0.04,0.41,10.02
0.76,-0.12,0.05,0.02,0.46,10.04
0.79,-0.19,0.06,0.10,0.83,9.96
0.54,-0.18,0.06,0.14,0.96,9.89
0.33,-0.14,0.11,0.18,0.99,9.82
0.15,-0.01,0.17,0.21,0.97,9.83
-0.08,0.23,0.18,0.11,0.85,9.89
-0.06,0.19,0.18,0.06,0.79,9.96
0.03,0.06,0.19,0.04,0.78,10.01
0.11,-0.04,0.21,0.04,0.81,10.02
0.08,-0.13,0.23,0.07,0.83,9.97
0.12,-0.16,0.24,0.09,0.83,9.75
0.28,-0.07,0.25,0.11,0.89,9.69
0.41,-0.00,0.26,0.10,1.02,9.67
0.55,-0.04,0.21,0.08,1.04,9.61
0.67,0.04,0.23,0.13,1.12,9.70
0.77,0.10,0.21,0.08,1.19,9.66
0.71,0.14,0.22,0.08,1.23,9.69
0.31,0.24,0.22,0.05,1.20,9.76
0.33,0.31,0.20,0.04,1.09,9.80
0.54,0.30,0.20,0.02,1.04,9.84
0.77,0.24,0.18,0.01,1.14,9.92
0.91,0.13,0.15,-0.05,1.26,9.90
0.84,0.02,0.17,0.05,1.34,9.99
0.82,0.05,0.14,0.03,1.40,9.91
0.75,0.03,0.17,0.04,1.47,9.86
0.81,0.08,0.17,0.06,1.57,9.85
0.73,0.14,0.19,0.08,1.60,9.88
0.62,0.20,0.19,0.07,1.66,9.91
0.45,0.24,0.20,0.06,1.70,9.95
0.11,0.22,0.24,0.03,1.57,9.94
0.17,0.12,0.26,0.02,1.48,9.91
0.43,0.07,0.27,0.03,1.49,9.89
0.63,0.03,0.29,0.03,1.60,9.89
0.70,-0.05,0.28,0.03,1.70,9.85
0.56,-0.16,0.26,0.02,1.81,9.78
0.53,-0.19,0.28,0.04,1.80,9.71
0.58,-0.18,0.29,0.06,1.83,9.64
0.93,-0.12,0.30,0.08,1.91,9.68
0.94,-0.07,0.30,0.06,1.96,9.69
0.88,-0.01,0.31,0.06,2.01,9.74
0.79,0.04,0.28,0.07,2.03,9.80
0.59,0.09,0.30,0.03,2.04,9.84
0.53,0.09,0.32,0.07,2.00,9.89
0.50,0.14,0.30,0.06,1.96,9.89
0.56,0.18,0.28,0.06,1.95,9.88
1.11,-0.05,0.29,0.00,2.13,9.79
1.23,-0.16,0.29,0.14,2.17,9.86
1.21,-0.17,0.31,0.17,2.26,9.85
1.13,-0.09,0.32,0.12,2.36,9.80
0.60,-0.11,0.30,0.13,2.43,9.83
0.34,-0.08,0.31,0.13,2.38,9.84
0.19,0.05,0.33,0.14,2.27,9.88
0.06,0.15,0.36,0.10,2.11,9.91
0.14,0.20,0.32,0.03,1.92,10.00
0.36,0.15,0.32,0.01,1.97,10.04
0.48,0.08,0.32,-0.02,2.07,10.05
0.31,-0.03,0.29,-0.02,2.16,9.99
0.07,0.10,0.28,0.08,2.08,9.82
0.19,0.22,0.26,0.04,2.07,9.74
0.38,0.33,0.23,0.04,2.17,9.82
0.31,0.35,0.21,0.05,2.29,9.91
0.01,0.31,0.22,0.05,2.30,9.98
-0.23,0.26,0.13,-0.04,1.98,9.84
0.10,0.22,0.13,0.04,1.88,9.88
0.31,0.20,0.09,0.01,1.92,9.93
-0.00,0.14,0.09,0.04,2.00,10.05
-0.09,0.01,0.10,-0.04,1.94,9.98
0.03,-0.17,0.07,-0.02,1.88,9.89
0.39,-0.28,0.09,0.07,1.94,9.83
0.44,-0.25,0.15,0.07,2.24,9.65
0.21,-0.15,0.19,0.13,2.27,9.61
-0.00,-0.06,0.19,0.17,2.17,9.58
0.03,0.06,0.22,0.19,2.09,9.59
0.20,0.17,0.31,0.11,2.04,9.64
0.10,0.16,0.33,-0.00,2.05,9.84
0.02,-0.00,0.36,0.04,1.94,9.96
0.00,-0.13,0.34,0.00,1.86,9.94
0.38,-0.40,0.35,-0.01,1.91,9.82
0.36,-0.46,0.33,0.01,2.06,9.79
0.19,-0.43,0.36,0.05,2.16,9.79
-0.08,-0.38,0.34,0.09,2.18,9.81
-0.27,-0.41,0.33,-0.03,2.07,9.72
-0.25,-0.41,0.32,0.06,2.00,9.82
-0.21,-0.33,0.33,0.06,1.98,9.84
-0.19,-0.30,0.32,0.02,1.98,9.80
-0.24,-0.35,0.33,-0.04,1.92,9.76
-0.12,-0.30,0.29,0.15,1.81,9.84
-0.04,-0.13,0.29,0.10,1.79,9.81
0.02,-0.06,0.29,0.06,1.79,9.77
0.26,-0.06,0.31,0.03,1.78,9.76
0.45,-0.01,0.32,0.11,1.85,9.81
0.59,-0.00,0.34,0.08,1.94,9.87
0.46,-0.07,0.31,0.02,2.02,9.86
0.27,-0.20,0.29,0.13,1.87,10.00
0.31,-0.17,0.28,0.07,1.83,9.96
0.27,-0.20,0.30,0.15,1.80,10.13
0.11,-0.25,0.29,0.14,1.80,10.25
-0.12,-0.36,0.32,0.05,1.72,10.24
0.14,-0.57,0.35,0.00,1.62,10.19
0.24,-0.66,0.34,-0.01,1.73,10.07
0.06,-0.67,0.34,0.16,1.86,10.06
-0.38,-0.35,0.37,0.21,1.81,9.71
-0.27,-0.07,0.43,0.27,1.80,9.66
-0.05,0.26,0.45,0.17,1.86,9.65
-0.24,0.40,0.44,0.09,1.96,9.67
-0.72,0.57,0.40,0.07,1.74,9.81
-0.68,0.60,0.39,0.09,1.52,9.71
-0.27,0.62,0.39,0.11,1.42,9.71
0.17,0.54,0.41,0.02,1.55,9.62
0.26,0.39,0.42,0.04,1.75,9.66
-0.37,0.38,0.35,0.17,1.83,9.78
-0.48,0.37,0.34,0.06,1.66,9.66
-0.08,0.20,0.37,-0.03,1.55,9.54
0.43,0.05,0.36,0.22,1.85,9.84
0.09,0.07,0.40,0.08,1.96,9.75
-0.23,0.01,0.42,-0.01,1.88,9.70
-0.35,-0.01,0.38,0.08,1.70,9.77
-0.06,0.25,0.39,0.02,1.56,9.88
0.04,0.20,0.40,-0.10,1.68,9.92
-0.04,-0.08,0.41,-0.17,1.75,9.95
-0.30,-0.23,0.37,-0.07,1.74,10.00
-0.39,-0.21,0.38,0.02,1.69,9.92
-0.27,-0.11,0.39,-0.05,1.68,9.72
-0.26,-0.12,0.42,-0.12,1.73,9.69
-0.36,-0.07,0.41,0.00,1.75,9.87
-0.64,0.12,0.37,-0.11,1.69,9.85
-0.64,-0.01,0.37,-0.11,1.62,9.86
-0.54,-0.10,0.36,-0.09,1.57,9.83
-0.37,-0.05,0.34,-0.02,1.59,9.80
-0.45,0.19,0.29,-0.00,1.73,9.70
-0.70,0.18,0.30,0.04,1.72,9.68
-0.76,0.32,0.23,0.09,1.67,9.70
-0.71,0.55,0.24,0.11,1.68,9.60
-0.78,0.67,0.26,0.24,1.65,9.71
-1.06,0.85,0.22,0.16,1.63,9.65
-1.21,0.96,0.17,0.29,1.54,9.74
-1.15,1.09,0.15,0.17,1.54,9.63
-1.13,1.33,0.13,0.34,1.57,9.87
-1.37,1.37,0.16,0.23,1.53,9.75
-1.40,1.36,0.19,0.28,1.43,9.80
-1.23,1.39,0.14,0.28,1.38,9.76
-0.67,1.25,0.16,0.17,1.54,9.78
-0.77,1.03,0.11,0.00,1.63,9.71
-0.75,0.63,0.08,0.08,1.57,9.65
-0.63,0.32,0.16,0.18,1.40,9.74
0.07,0.25,0.15,0.13,1.35,9.63
0.29,0.03,0.22,0.11,1.34,9.71
0.48,0.04,0.21,-0.05,1.41,9.70
0.66,0.16,0.24,-0.07,1.48,9.82
0.73,0.33,0.22,-0.08,1.44,9.95
0.76,0.49,0.27,-0.03,1.46,9.96
0.89,0.78,0.30,-0.04,1.47,9.96
0.93,0.96,0.29,-0.11,1.51,9.88
0.71,1.30,0.23,-0.09,1.73,9.96
0.39,1.43,0.19,-0.17,1.77,9.97
-0.02,1.40,0.12,-0.15,1.69,9.99
-0.17,1.28,0.10,-0.20,1.54,9.92
-0.06,0.78,0.10,-0.04,1.41,9.79
0.04,0.59,0.09,-0.14,1.49,9.70
-0.07,0.37,0.06,-0.14,1.53,9.52
-0.20,0.24,0.00,0.00,1.52,9.63
-0.24,0.25,-0.04,-0.04,1.50,9.63
-0.07,0.12,-0.05,0.01,1.41,9.82
0.13,-0.06,-0.01,-0.15,1.42,9.80
0.12,-0.19,-0.05,-0.08,1.46,10.04
0.13,-0.26,-0.11,-0.17,1.41,10.06
0.35,-0.42,-0.11,-0.15,1.44,10.04
0.48,-0.63,-0.11,-0.04,1.45,10.04
0.57,-0.69,-0.09,0.03,1.47,10.02
0.35,-0.67,-0.01,-0.12,1.29,9.88
0.53,-0.91,0.00,-0.20,1.29,9.68
1.08,-1.24,0.01,-0.15,1.29,9.66
1.56,-1.41,0.04,0.00,1.39,9.71
1.54,-1.41,0.17,0.12,1.50,9.71
1.18,-0.88,0.21,0.15,1.45,9.90
1.01,-0.64,0.25,0.01,1.38,10.02
1.17,-0.68,0.27,-0.18,1.41,10.05
1.08,-0.63,0.32,0.12,1.76,10.72
0.30,-0.55,0.35,-0.22,1.79,10.50
-0.18,-0.76,0.36,-0.15,1.55,10.36
-0.20,-0.93,0.32,0.20,1.21,10.30
0.52,-0.32,0.37,-0.01,1.55,9.89
0.20,-0.34,0.30,-0.11,1.81,9.90
-0.45,-0.56,0.20,0.04,1.93,9.99
-1.14,-0.65,0.22,0.20,1.61,9.89
-1.14,-0.49,0.22,0.15,1.23,9.62
0.29,-0.70,0.16,-0.13,1.34,9.31
0.48,-0.83,0.04,-0.13,1.65,9.37
0.08,-0.91,0.03,0.02,1.72,9.50
-0.42,-1.17,0.03,0.04,1.36,9.11
0.08,-1.18,0.13,0.20,1.11,9.03
0.77,-0.89,0.16,0.28,1.10,8.91
1.30,-0.42,0.21,0.10,1.35,8.89
0.92,0.01,0.06,0.01,1.74,9.13
0.68,0.01,0.02,0.01,1.54,9.25
0.84,-0.05,-0.03,0.05,1.22,9.33
1.59,-0.18,-0.05,0.02,1.08,9.49
2.40,-0.41,0.01,-0.00,1.24,9.71
2.33,-0.89,0.07,-0.02,1.80,10.18
1.84,-1.11,0.02,0.07,1.77,10.23
1.62,-1.10,0.01,0.07,1.59,10.11
1.79,-0.57,0.10,0.33,1.55,9.96
1.76,-0.28,0.21,0.33,1.64,9.90
1.45,0.04,0.24,0.44,1.77,9.85
1.12,0.50,0.36,0.50,1.82,9.76
0.50,1.82,0.38,0.50,1.76,9.54
0.29,2.40,0.42,0.58,1.69,9.54
0.02,2.90,0.42,0.63,1.65,9.57
-0.09,3.38,0.47,0.61,1.63,9.58
-0.15,3.82,0.49,0.69,1.66,9.88
-0.97,4.30,0.53,0.39,1.82,10.30
-1.63,3.95,0.44,0.11,1.68,10.31
-1.91,3.47,0.41,0.15,1.36,10.46
-1.19,2.61,0.13,0.04,1.23,10.42
-0.60,1.98,0.21,0.01,1.46,10.47
-0.66,1.16,0.28,-0.04,1.75,10.46
-1.05,0.54,0.29,0.07,1.79,10.35
-1.06,0.14,0.32,-0.16,1.23,9.74
-0.29,0.31,0.26,-0.13,1.25,9.74
0.17,0.52,0.20,-0.26,1.47,9.74
0.00,0.46,0.19,-0.33,1.71,9.79
-0.35,0.21,0.26,-0.30,1.72,9.84
-0.16,0.23,0.27,-0.20,1.06,9.65
0.80,0.68,0.32,-0.47,1.12,9.50
1.34,0.68,0.34,-0.71,1.39,9.53
0.82,0.30,0.16,-0.36,1.88,10.23
0.18,0.10,0.17,-0.53,1.64,10.05
0.22,-0.29,0.20,-0.67,1.44,9.91
0.79,-0.65,0.23,-0.48,1.39,10.22
0.38,-1.02,0.21,-0.60,1.74,10.53
-0.07,-1.36,0.19,-0.72,1.67,10.56
-0.33,-1.89,0.10,-0.55,1.64,10.66
-0.40,-2.17,0.06,-0.50,1.59,10.60
-0.63,-2.24,0.05,-0.31,1.49,10.51
-0.79,-2.35,0.10,-0.25,1.37,10.03
-0.59,-2.35,0.11,-0.19,1.40,9.84
-0.28,-2.09,0.12,-0.10,1.51,9.70
-0.62,-1.48,-0.01,-0.03,1.65,9.31
-0.82,-1.19,-0.02,0.24,1.40,9.23
-0.51,-0.68,-0.04,0.49,1.23,9.31
0.13,-0.14,0.04,0.36,1.27,9.24
0.71,0.01,-0.01,0.12,1.54,9.26
0.72,0.08,-0.06,0.23,1.58,9.30
0.68,0.18,-0.14,0.22,1.49,9.23
0.90,0.20,-0.16,0.29,1.36,9.10
1.32,0.17,-0.14,0.54,1.27,9.22
1.68,0.65,-0.11,0.42,1.52,9.40
1.56,0.96,-0.13,0.32,1.74,9.87
1.07,0.96,-0.25,0.12,1.94,10.34
-0.64,-0.05,-0.28,0.14,1.61,11.24
-0.65,-0.73,-0.16,0.16,1.27,11.25
-0.20,-1.36,-0.06,0.08,1.24,11.05
0.06,-1.79,-0.01,-0.08,1.57,10.75
-1.39,-1.99,-0.07,0.16,1.92,10.37
-2.03,-1.90,-0.02,0.14,1.61,9.85
-1.95,-1.73,0.10,0.14,1.30,9.38
-1.38,-1.51,0.20,0.29,1.19,9.05
-0.41,-1.19,0.24,0.14,1.27,8.60
0.24,-0.16,0.33,0.21,1.55,8.32
0.14,0.34,0.27,0.19,1.56,8.14
0.34,0.74,0.27,0.27,1.41,8.00
0.99,1.12,0.31,0.48,1.26,7.98
2.14,2.42,0.41,0.27,1.52,8.45
1.78,2.83,0.38,0.18,1.73,9.15
1.18,2.97,0.31,0.25,1.74,10.09
1.07,1.44,0.30,-0.35,1.48,10.95
1.35,0.27,0.31,-0.34,1.42,11.19
1.45,-0.63,0.22,-0.31,1.47,11.02
1.21,-1.08,0.17,-0.08,1.50,10.84
1.06,-1.16,0.17,0.14,1.77,10.18
0.94,-0.94,0.17,0.28,1.86,10.10
0.12,-0.49,0.23,0.34,1.79,10.24
-0.65,0.17,0.22,0.17,1.61,10.35
-0.79,0.48,0.18,-0.30,1.35,10.24
0.19,-0.56,0.17,-0.50,1.31,10.43
0.49,-1.15,0.21,-0.16,1.48,10.55
0.29,-1.26,0.20,0.04,1.51,10.32
0.06,-0.57,0.23,-0.18,1.40,9.35
0.29,-0.00,0.07,-0.00,1.46,9.49
0.30,0.45,0.11,0.08,1.69,9.77
-0.07,0.62,0.12,-0.13,1.75,10.04
-0.45,-0.17,0.01,-0.41,1.25,9.95
0.26,-0.34,-0.06,-0.33,1.16,9.90
0.85,-0.39,-0.07,-0.09,1.42,10.02
0.71,-0.42,-0.09,0.05,1.79,10.18
-0.23,-0.50,-0.12,0.07,1.93,10.18
-1.15,-0.04,-0.15,0.11,1.42,10.07
-0.70,0.07,-0.14,-0.00,1.40,10.10
-0.48,-0.03,-0.13,0.09,1.60,10.48
-1.68,-0.38,-0.03,0.23,1.56,10.31
-1.64,-0.26,-0.03,0.37,1.29,10.08
-1.00,0.00,0.02,0.23,1.21,9.53
-0.49,0.26,0.01,0.25,1.42,9.39
-1.21,0.72,0.12,0.49,1.84,9.38
-1.95,0.81,0.16,0.46,1.48,9.18
-1.84,1.08,0.19,0.51,1.11,9.08
-1.10,1.35,0.24,0.39,0.99,8.83
-0.12,1.58,0.21,0.20,1.12,8.83
0.16,1.65,0.26,0.41,1.68,9.37
-0.43,1.81,0.15,0.41,1.65,9.57
-0.56,1.94,0.19,0.26,1.43,9.34
0.70,1.67,0.19,0.14,1.22,9.39
1.09,1.61,0.25,0.12,1.50,9.60
0.69,1.51,0.20,0.05,1.73,9.89
0.16,1.28,0.14,-0.13,1.71,9.95
0.21,0.01,0.18,-0.10,1.14,9.91
1.03,-0.07,0.19,0.01,1.20,10.10
1.38,0.02,0.23,-0.14,1.51,10.10
0.91,-0.05,0.23,-0.31,1.82,10.18
0.09,-0.27,0.20,-0.37,1.84,10.24
-0.29,-0.13,0.19,-0.10,1.23,10.17
0.22,0.06,0.20,-0.21,1.10,10.08
0.73,0.05,0.17,-0.44,1.28,9.99
0.46,-0.10,0.17,-0.27,1.77,10.25
-0.25,-0.09,0.13,-0.29,1.62,10.12
-0.45,-0.05,0.12,-0.22,1.29,9.94
-0.04,-0.02,0.07,-0.29,1.12,9.81
0.74,-0.13,0.00,-0.26,1.38,10.02
0.60,-0.28,-0.01,-0.25,1.63,10.10
0.15,-0.45,-0.03,-0.14,1.63,10.04
-0.15,-0.45,-0.05,-0.02,1.38,9.96
0.08,-0.18,-0.05,0.09,1.06,9.74
1.57,0.49,0.02,0.17,1.46,9.71
1.26,0.67,-0.04,0.07,1.83,9.81
0.44,0.69,-0.12,-0.02,1.88,9.74
0.08,0.84,-0.08,0.30,1.11,9.62
0.88,1.02,-0.03,0.05,1.05,9.36
1.56,0.93,0.03,0.21,1.32,9.51
1.68,0.78,0.07,0.33,1.69,9.77
0.28,0.90,-0.01,0.23,1.58,9.77
0.06,0.87,0.00,0.16,1.26,9.64
0.65,0.62,0.05,0.07,1.14,9.49
1.37,0.36,0.17,0.31,1.30,9.75
1.49,0.32,0.22,0.26,1.60,9.75
0.34,0.23,0.24,0.20,1.70,9.54
0.05,0.27,0.23,0.17,1.43,9.29
0.33,0.46,0.21,0.17,1.20,9.28
1.27,0.55,0.35,0.27,1.40,9.64
1.13,0.74,0.34,0.26,1.64,9.88
0.80,0.92,0.44,0.03,1.56,9.76
0.80,0.98,0.45,-0.08,1.36,9.72
1.22,1.31,0.37,0.11,1.21,9.98
1.36,1.62,0.34,-0.08,1.27,9.95
1.39,1.64,0.31,-0.14,1.32,10.06
1.59,1.44,0.27,-0.21,1.48,10.17
1.63,0.96,0.29,-0.38,1.56,10.10
1.41,0.44,0.25,-0.11,1.41,10.10
1.46,0.47,0.17,-0.34,1.27,9.76
1.58,0.55,0.04,-0.19,1.28,9.96
1.43,0.26,-0.09,-0.48,1.77,10.45
0.91,-0.28,-0.10,-0.45,1.85,10.81
0.37,-0.89,-0.07,-0.40,1.65,10.94
-0.02,-1.39,-0.17,-0.54,1.42,10.64
0.37,-1.44,-0.16,-0.18,1.30,10.50
0.35,-1.29,-0.29,-0.37,1.63,10.24
0.10,-1.25,-0.24,-0.15,1.87,10.31
-0.39,-1.03,-0.22,0.21,1.88,10.54
-1.16,-0.52,-0.24,0.08,1.82,10.36
-2.04,0.50,-0.18,0.21,1.15,9.96
-1.54,0.83,-0.25,-0.04,1.08,9.57
-0.75,1.10,-0.20,-0.02,1.20,9.38
-0.76,1.62,-0.22,0.47,1.42,9.52
-0.71,1.73,-0.09,0.21,1.30,9.20
-0.37,1.66,-0.08,0.34,1.10,9.16
0.45,1.78,-0.16,0.33,1.13,9.19
0.94,1.30,-0.18,0.03,1.66,9.43
0.55,0.57,-0.17,0.05,1.71,9.64
0.16,-0.31,-0.13,0.22,1.41,9.61
0.69,-0.67,-0.03,0.17,1.13,9.52
1.84,-1.12,0.07,0.03,1.39,9.33
1.71,-1.13,0.06,-0.11,1.76,9.50
1.05,-0.99,0.09,-0.00,1.80,9.71
0.14,-0.76,0.09,0.28,1.59,10.13
-0.06,-0.46,0.11,-0.06,1.26,9.95
1.22,-0.36,0.23,-0.12,1.01,9.91
1.97,0.01,0.24,-0.06,1.38,9.96
1.69,0.41,0.19,-0.13,1.71,10.08
0.02,1.10,-0.00,-0.00,1.68,10.29
-0.45,1.24,-0.04,-0.33,1.37,10.38
-0.30,1.21,-0.22,-0.46,1.11,10.56
0.21,0.53,-0.20,-0.29,1.22,11.08
-0.14,-1.02,-0.29,-0.61,1.80,11.39
-1.42,-1.77,-0.34,-0.46,1.67,11.07
-1.94,-2.34,-0.42,-0.42,1.39,10.44
-1.59,-2.56,-0.43,-0.15,1.23,10.10
-1.21,-2.38,-0.42,-0.01,1.26,9.81
-1.56,-2.07,-0.42,0.03,1.74,9.47
-2.03,-1.85,-0.41,-0.03,1.62,9.24
-2.41,-1.47,-0.42,0.09,1.28,9.04
-1.22,-0.19,-0.46,0.10,1.10,8.69
-0.63,0.06,-0.42,0.23,1.20,8.77
-0.17,0.47,-0.44,0.39,1.33,8.97
-0.17,0.98,-0.39,0.40,1.44,8.90
-0.39,1.37,-0.35,0.48,1.31,8.96
0.29,2.11,-0.29,0.45,1.30,9.44
0.20,2.27,-0.32,0.59,1.40,9.93
0.03,2.16,-0.27,0.29,1.51,10.27
-0.03,1.70,-0.22,-0.03,1.43,10.37
0.21,0.03,-0.17,0.05,1.15,10.38
0.79,-0.66,-0.13,-0.10,1.14,9.99
1.06,-1.37,-0.14,0.10,1.26,9.94
0.65,-1.94,-0.14,-0.03,1.57,9.72
0.45,-2.13,-0.05,-0.28,1.49,9.50
0.43,-2.19,0.01,0.00,1.25,9.67
0.56,-1.89,-0.01,0.15,1.12,9.73
1.14,-0.41,0.09,0.17,1.06,9.77
1.23,0.37,0.02,0.08,1.23,9.94
1.16,1.16,-0.14,-0.20,1.45,10.05
1.11,1.68,-0.16,-0.20,1.65,10.23
0.74,1.94,-0.18,0.00,1.58,10.57
-0.11,1.56,-0.28,-0.40,1.29,10.31
0.10,0.91,-0.43,-0.44,1.02,10.22
0.50,0.23,-0.61,-0.22,1.13,10.19
0.50,-1.17,-0.59,-0.50,1.92,9.85
-0.91,-2.06,-0.68,-0.16,1.84,9.90
-1.63,-2.48,-0.68,0.08,1.36,9.71
-1.31,-2.50,-0.57,-0.06,0.88,9.20
0.79,-2.70,-0.59,-0.22,1.08,8.89
1.22,-2.69,-0.63,0.07,1.35,9.00
1.10,-2.20,-0.59,0.38,1.51,9.04
0.88,-1.12,-0.49,0.60,1.37,9.18
0.79,-0.19,-0.53,0.28,1.19,8.86
2.04,0.88,-0.48,0.43,1.22,9.25
2.11,1.41,-0.46,0.46,1.35,9.40
1.81,1.83,-0.47,0.32,1.45,9.63
1.89,1.75,-0.43,0.14,1.27,9.85
1.80,1.44,-0.39,0.26,1.18,10.02
1.92,1.55,-0.37,0.62,1.17,10.46
1.94,1.52,-0.33,0.17,1.29,10.40
1.05,0.49,-0.41,0.07,1.39,11.01
0.89,-0.19,-0.39,-0.14,1.45,10.92
0.67,-0.80,-0.32,-0.18,1.46,10.99
0.30,-1.36,-0.30,-0.01,1.54,10.97
-0.45,-1.76,-0.27,-0.05,1.55,10.82
-1.05,-1.57,-0.34,0.08,1.44,10.26
-1.21,-1.14,-0.31,-0.12,1.55,10.17
-1.73,-0.59,-0.44,0.04,1.60,10.37
-3.05,0.07,-0.33,0.02,1.48,10.65
-3.58,0.04,-0.26,-0.14,1.24,10.55
-3.68,0.06,-0.29,-0.13,0.98,10.43
-2.88,0.13,-0.36,-0.14,0.99,9.94
-2.43,0.28,-0.32,0.12,1.14,9.26
-2.76,0.90,-0.51,0.44,1.12,8.74
-2.46,1.54,-0.45,0.36,1.09,8.36
-2.34,1.82,-0.52,0.19,1.08,8.37
-2.11,1.85,-0.66,0.22,1.11,8.53
-1.47,1.73,-0.56,0.27,1.03,9.42
-0.96,1.44,-0.53,0.14,1.03,9.70
-0.71,0.94,-0.50,-0.05,1.04,9.94
0.09,0.00,-0.62,-0.10,1.11,9.74
0.15,-0.12,-0.61,0.64,1.13,10.27
-0.08,0.28,-0.62,0.43,1.26,10.22
-0.50,0.40,-0.43,-0.05,1.30,10.02
-0.54,-0.12,-0.47,-0.14,1.06,10.53
-0.41,-0.41,-0.35,-0.25,1.15,10.50
-0.61,-0.38,-0.31,-0.02,1.26,10.77
-1.21,-0.54,-0.37,-0.23,1.28,10.21
-1.48,-0.72,-0.38,-0.15,1.09,9.81
-0.83,0.22,-0.29,0.22,1.23,9.60
-1.34,0.70,-0.29,-0.02,1.56,9.61
-1.97,0.81,-0.36,-0.09,1.47,9.44
-1.75,0.53,-0.42,0.09,0.78,9.03
-0.93,0.83,-0.45,0.10,0.77,8.77
-0.43,0.80,-0.46,-0.25,0.94,8.38
-0.22,0.54,-0.52,-0.19,1.14,8.42
-0.77,0.35,-0.54,0.32,1.17,8.99
-0.26,0.42,-0.47,-0.09,1.08,8.87
0.03,-0.13,-0.42,-0.58,0.98,8.94
-0.11,-0.47,-0.61,-0.35,1.08,9.68
-0.27,-0.65,-0.81,-0.13,1.09,9.87
1.60,-1.71,-0.20,0.30,0.95,9.92
1.47,-1.45,-0.37,-0.03,1.08,9.44
1.51,-0.87,-0.37,0.70,1.38,9.38
0.96,1.20,-0.29,0.03,1.14,9.34
1.08,1.62,-0.27,0.35,1.35,9.80
1.36,1.94,-0.04,0.74,1.32,10.57
0.44,1.91,-0.16,0.19,1.35,10.38
-0.19,2.05,-0.06,-0.00,0.71,10.28
-0.06,1.64,-0.33,-0.12,0.79,10.10
0.77,1.31,-0.15,0.03,1.07,10.43
0.54,0.79,-0.13,0.20,1.30,10.69
0.03,0.11,-0.18,-0.24,1.50,10.37
-1.08,-0.70,-0.27,-0.15,0.92,10.12
-0.40,-0.66,-0.33,-0.31,0.80,9.90
0.31,-0.94,-0.29,-0.31,1.03,10.05
-0.48,-1.68,-0.41,-0.21,1.48,10.28
-1.25,-1.42,-0.35,0.16,1.09,10.19
-0.71,-0.62,-0.30,0.22,0.77,9.97
-0.11,0.19,-0.32,-0.09,0.94,9.77
-0.47,0.79,-0.38,0.08,1.46,9.86
-1.08,1.15,-0.42,-0.00,1.32,9.57
-1.01,1.56,-0.48,-0.12,0.95,9.16
-0.56,1.57,-0.52,0.16,0.78,9.02
1.27,1.02,-0.34,-0.19,1.13,8.76
1.22,0.62,-0.32,0.10,1.34,9.24
0.70,0.33,-0.41,0.18,1.30,9.59
0.41,-0.11,-0.40,-0.24,1.15,9.50
0.82,-0.64,-0.28,-0.18,0.97,9.96
1.17,-2.02,-0.26,-0.25,1.21,10.56
0.58,-2.65,-0.22,-0.24,1.15,10.65
0.38,-2.91,-0.21,-0.31,1.03,10.38
1.06,-2.48,-0.21,0.14,0.96,9.95
1.57,-1.89,-0.07,0.01,1.26,9.43
1.33,-1.35,0.04,0.36,1.41,9.34
0.66,-0.23,-0.05,0.54,1.35,9.24
0.18,1.22,-0.10,0.49,1.09,9.03
1.19,3.29,-0.17,0.06,1.15,9.30
1.29,3.24,-0.26,0.02,1.48,9.95
0.54,2.95,-0.28,0.10,1.52,10.64
-0.70,1.48,-0.30,-0.28,0.85,10.40
-0.06,0.53,-0.38,-0.29,0.77,10.05
0.87,-0.24,-0.41,-0.12,0.87,9.82
1.31,-0.51,-0.39,0.35,1.16,10.24
-0.29,-0.63,-0.25,0.03,1.45,10.18
-0.59,-0.94,-0.27,-0.20,1.36,10.04
-0.30,-1.09,-0.24,-0.16,1.17,9.95
-0.09,-1.03,-0.22,0.19,1.10,10.22
-0.56,-0.23,-0.14,0.08,1.23,10.00
-0.74,-0.22,-0.12,0.25,0.95,9.91
-0.09,0.14,-0.06,0.12,1.01,9.82
0.25,0.61,-0.04,-0.04,1.27,9.98
-0.52,0.73,-0.10,-0.05,1.53,10.38
-1.72,-0.11,-0.10,-0.37,0.88,10.01
-1.12,-0.58,-0.09,-0.18,0.64,9.70
0.17,-0.81,-0.11,-0.00,0.60,9.37
1.38,-1.00,-0.09,-0.24,1.21,8.87
0.99,-0.98,-0.17,-0.06,1.43,8.94
0.36,-1.02,-0.18,0.10,1.24,8.98
0.64,-0.54,-0.22,0.27,1.01,9.31
1.00,0.21,-0.11,-0.29,1.13,9.71
1.13,0.25,-0.27,-0.43,1.36,10.08
0.84,0.06,-0.26,-0.19,1.29,10.29
0.32,0.13,-0.27,0.27,1.15,10.59
0.21,0.71,-0.18,0.08,1.24,10.13
-0.22,0.88,-0.28,0.14,1.34,10.11
-0.40,1.34,-0.23,0.24,1.41,10.18
-1.12,1.65,-0.19,0.20,1.36,10.34
-1.56,1.29,-0.20,-0.12,1.15,10.41
-1.57,0.27,-0.19,-0.18,1.06,10.25
-1.26,-0.23,-0.21,-0.04,1.02,10.14
-1.00,-0.58,-0.15,0.13,0.96,9.79
-0.88,-0.77,0.00,0.26,1.11,9.25
-0.81,-0.64,0.05,0.41,1.00,9.13
-0.50,-0.16,0.11,0.37,0.92,9.14
-0.10,0.31,0.15,-0.14,0.99,9.12
0.12,0.09,0.11,-0.37,1.14,9.26
0.60,-1.03,0.13,-0.14,0.89,9.25
1.08,-0.87,0.22,0.18,0.77,9.12
1.40,-0.18,0.27,0.46,0.82,9.13
1.77,1.20,0.16,-0.17,1.37,9.27
1.35,1.51,0.12,0.08,1.49,9.98
0.80,1.88,0.07,-0.06,1.44,10.38
0.32,1.82,0.07,-0.25,1.22,10.60
0.62,0.71,-0.09,-0.39,0.76,10.50
1.42,0.14,-0.06,-0.35,1.17,10.39
1.51,-0.12,-0.06,-0.16,1.61,10.46
0.15,-0.31,-0.15,0.13,1.79,10.66
-1.50,-0.27,-0.11,0.24,1.72,10.59
-2.64,0.14,-0.06,-0.04,0.95,9.96
-2.11,0.05,-0.04,-0.08,0.96,9.98
-1.66,-0.08,-0.02,-0.17,1.08,10.17
-2.47,-0.57,0.02,-0.17,1.19,10.15
-2.81,-1.01,0.08,-0.35,0.99,9.77
-2.43,-1.42,0.03,-0.17,0.81,9.51
-1.23,-1.61,0.15,0.03,0.91,9.21
-0.79,-1.40,0.14,-0.14,1.07,8.69
-0.72,-1.02,0.16,-0.02,1.04,8.60
-0.43,-0.46,0.10,0.17,1.00,9.01
-0.31,-0.14,0.09,-0.12,1.07,9.09
-0.33,-0.33,0.20,-0.35,0.93,9.25
0.78,-0.87,0.22,-0.19,0.63,9.29
1.76,-0.60,0.19,-0.11,0.67,9.22
2.46,0.08,0.15,0.13,1.09,9.41
1.18,1.15,-0.04,0.17,1.45,9.66
0.83,1.65,0.03,0.41,1.26,10.07
0.86,1.97,0.10,0.35,1.09,10.46
1.02,1.99,0.10,0.03,1.11,10.68
1.35,0.75,0.06,-0.39,1.46,10.73
1.22,0.00,0.06,-0.08,1.58,10.80
0.14,-0.58,0.10,-0.04,1.30,10.41
-0.10,-0.79,0.03,0.14,0.98,9.71
0.80,-0.37,0.17,0.95,0.94,9.94
-0.03,0.70,0.16,-0.52,1.32,9.18
-0.18,0.32,0.21,-0.03,1.39,10.02
-0.50,-0.07,0.19,0.08,1.22,10.48
-0.19,-1.38,0.31,-0.34,1.01,9.63
0.35,-1.93,0.37,-0.04,0.81,9.50
0.75,-1.88,0.11,-0.21,1.09,8.96
1.20,-1.41,0.21,-0.07,1.54,8.79
0.01,-0.95,0.10,-0.24,1.29,8.82
0.07,-0.62,0.07,-0.08,0.97,9.04
0.90,-0.30,0.08,-0.12,0.64,9.20
1.69,-0.54,0.09,-0.56,0.71,9.24
2.59,-0.68,0.12,-0.37,1.04,9.85
1.78,-0.46,-0.07,-0.45,1.37,10.42
1.17,-0.53,-0.15,-0.31,1.38,10.51
1.38,-0.52,-0.22,-0.03,1.33,10.47
1.08,0.27,-0.10,0.54,1.33,10.82
0.58,1.03,-0.07,0.19,1.59,10.86
0.02,1.15,-0.06,-0.11,1.77,10.78
-0.94,0.83,-0.06,0.32,1.62,11.29
-2.12,1.51,-0.13,0.03,0.98,11.00
-1.86,0.99,0.02,0.51,0.86,11.23
-1.56,0.57,0.07,0.07,0.95,10.84
-1.57,0.17,-0.01,-0.23,1.13,9.93
-1.57,-0.02,0.18,0.42,1.05,9.54
-1.72,0.11,0.01,0.13,1.20,8.83
-1.30,0.07,0.15,0.33,1.19,8.81
-1.05,0.10,0.16,0.26,0.98,8.88
0.08,-0.09,0.32,-0.15,1.24,8.73
-0.13,-0.22,0.15,-0.18,1.09,9.01
-0.02,-0.53,-0.04,-0.50,1.12,8.69
0.59,-0.68,0.20,0.06,0.96,9.13
0.89,0.37,0.00,-0.47,1.26,9.52
1.00,0.15,0.20,-0.38,1.32,10.01
0.48,-0.26,-0.06,-0.09,1.27,10.69
0.36,-0.30,-0.05,-0.43,1.39,10.20
-0.09,-0.18,-0.04,0.09,1.25,10.27
-0.20,-0.11,-0.03,0.10,1.31,9.66
-0.32,0.26,0.07,0.38,1.27,9.67
-0.60,1.13,0.03,0.27,1.22,9.57
-0.37,1.61,0.06,-0.00,1.43,9.43
-1.70,1.66,0.02,0.22,1.18,10.69
-2.12,1.32,0.14,-0.35,0.97,10.20
-1.85,0.66,0.32,-0.08,0.56,10.48
-0.08,-0.43,0.23,-0.12,1.03,9.46
0.16,-0.67,0.39,0.05,1.23,9.49
-0.62,-0.59,0.17,0.10,1.33,9.10
-0.76,-0.24,0.19,0.38,1.26,8.86
-0.71,0.31,0.32,0.46,1.02,9.14
0.18,0.97,0.33,-0.17,1.29,9.53
-0.33,0.53,0.31,-0.17,1.26,9.98
-0.72,0.16,0.13,-0.86,1.10,9.46
-0.08,-0.02,0.18,-0.26,0.90,9.50
0.63,0.56,-0.11,-0.30,1.00,9.17
1.16,0.62,0.12,-0.24,1.36,9.23
0.67,0.87,0.16,0.45,1.32,10.53
-0.66,1.10,0.02,-0.38,1.41,10.48
-0.52,0.47,0.05,-0.62,1.08,10.54
-0.37,-0.55,-0.18,-0.70,1.06,9.84
-0.01,-0.90,0.05,0.49,1.06,10.14
0.28,0.99,-0.03,0.11,1.26,9.49
0.01,1.14,0.23,0.13,1.38,10.08
-0.62,0.92,-0.02,-0.18,1.39,10.47
-1.24,0.53,-0.00,-0.27,1.45,10.70
-1.87,0.10,0.23,-0.04,0.87,11.08
-0.40,-1.87,0.09,-0.88,0.60,9.22
1.15,-2.55,0.18,-0.10,0.54,9.17
1.93,-2.21,0.00,0.24,0.93,8.94
1.15,-0.34,0.26,0.31,1.33,8.87
0.63,0.23,-0.00,-0.15,1.39,8.82
0.65,0.44,0.07,-0.37,1.30,8.90
0.80,0.37,-0.01,-0.29,1.05,9.33
1.48,-0.55,-0.14,-0.50,0.85,9.21
1.83,-0.91,-0.19,0.22,0.71,9.47
2.75,-0.50,-0.11,0.13,0.97,9.23
3.13,0.04,-0.02,0.13,1.25,9.23
2.79,0.52,-0.11,0.30,1.51,9.89
0.66,0.96,-0.11,-0.03,1.54,10.58
0.04,0.74,-0.09,0.17,1.19,10.95
0.47,0.33,0.06,-0.07,0.90,10.72
1.18,-0.18,0.19,0.26,1.41,10.76
0.26,-0.14,0.21,0.20,1.49,10.50
-0.58,-0.01,0.16,0.05,1.40,10.35
-0.89,-0.23,0.27,0.00,1.20,9.99
-0.26,-0.84,0.26,0.05,0.90,10.15
0.06,-1.12,0.44,-0.39,1.02,9.63
-0.07,-1.45,0.37,-0.42,1.00,9.87
-0.21,-1.63,0.23,-0.21,1.08,9.91
-0.06,-1.55,0.20,-0.02,1.05,9.87
0.34,-0.24,0.43,0.24,1.29,10.02
-0.41,0.79,0.29,-0.11,1.35,9.95
-1.01,1.41,0.10,-0.07,1.34,9.78
-0.18,1.76,0.03,0.05,1.06,9.88
-0.25,1.78,0.05,0.11,1.34,10.03
-1.11,1.71,-0.05,-0.06,1.53,10.17
-1.92,1.31,-0.08,-0.10,1.41,10.13
-2.03,0.31,-0.09,-0.33,0.77,10.13
-1.54,-0.31,-0.13,-0.26,0.91,10.35
-1.48,-1.03,-0.04,-0.08,1.24,10.57
-1.98,-1.69,0.01,-0.06,1.34,10.50
-2.81,-2.18,-0.02,-0.44,1.14,9.84
-2.03,-2.75,-0.05,-0.09,0.69,9.05
-1.26,-2.69,0.05,-0.09,0.58,8.96
-0.61,-2.16,0.08,0.27,0.67,9.17
-0.60,-0.86,0.06,-0.32,1.05,9.21
-1.39,-0.75,-0.08,-0.39,0.86,9.16
-1.60,-0.71,-0.08,-0.15,0.47,9.19
-0.90,-0.15,-0.11,0.30,0.25,9.41
0.61,0.94,-0.02,-0.01,0.67,9.27
0.62,0.97,-0.11,0.21,0.99,9.43
0.48,1.25,-0.11,0.25,1.10,9.38
0.20,1.82,-0.14,0.10,0.90,9.13
-0.18,2.18,-0.28,0.17,0.67,9.16
0.68,2.16,-0.19,0.17,0.61,9.68
1.25,1.64,-0.09,0.09,0.91,9.96
1.26,0.99,0.01,0.09,1.23,10.38
-0.68,0.03,-0.01,0.07,0.84,10.06
-0.74,0.14,0.03,0.22,0.27,10.17
-0.05,0.26,-0.04,0.19,0.09,9.97
1.23,-0.04,0.00,-0.07,0.42,9.63
1.08,-0.38,0.20,-0.03,1.09,10.45
-0.47,-0.15,0.00,0.12,1.05,10.73
-1.18,0.04,0.12,0.08,0.75,11.07
-0.85,-0.19,0.17,-0.76,0.49,10.79
-0.12,-2.48,0.10,-0.50,0.43,10.13
0.00,-2.58,0.02,0.05,0.34,9.71
-0.01,-1.72,0.08,0.18,0.35,9.12
0.02,-0.66,0.11,0.17,0.35,8.85
-0.15,1.04,-0.01,0.48,0.73,9.48
-0.69,2.13,0.08,0.39,0.86,10.12
-1.69,2.53,0.00,-0.34,0.70,10.17
-2.02,1.83,-0.06,-0.72,0.40,10.24
-0.82,-0.01,-0.17,0.00,-0.04,10.05
-0.02,-0.20,0.01,0.17,0.16,9.72
-0.07,-0.43,0.02,-0.01,0.44,9.24
-0.48,-0.63,-0.07,0.20,0.66,9.13
-1.19,0.49,-0.05,0.16,0.50,9.49
-1.36,0.47,0.02,-0.11,0.28,9.61
-1.27,-0.03,0.01,-0.22,-0.09,10.04
-0.98,-0.52,-0.11,-0.37,-0.34,9.91
0.80,-0.62,-0.03,-0.03,-0.44,9.85
1.48,-0.46,-0.07,-0.26,-0.06,9.60
1.29,-0.33,-0.09,-0.05,0.40,9.86
0.22,-0.10,-0.15,0.07,0.56,10.09
-0.75,-0.13,-0.18,-0.19,-0.13,10.08
-0.23,-0.20,-0.25,-0.08,-0.34,10.25
0.47,-0.33,-0.24,-0.25,-0.11,10.03
0.78,-0.52,-0.17,-0.21,0.13,9.85
0.53,-0.76,-0.25,-0.10,0.21,9.63
-0.42,0.41,-0.35,0.50,0.17,9.66
-0.81,1.01,-0.32,0.17,-0.08,9.49
-0.52,1.16,-0.32,-0.15,-0.26,9.67
0.19,0.71,-0.32,-0.13,-0.19,9.83
0.47,-0.35,-0.24,-0.08,-0.04,10.15
0.54,-0.76,-0.30,-0.14,-0.03,9.82
0.79,-1.13,-0.28,-0.05,0.04,9.70
-0.01,-0.90,-0.33,-0.03,0.16,9.92
-0.09,-0.80,-0.25,0.01,0.08,10.15
-0.39,-1.00,-0.25,-0.04,-0.16,10.39
-0.39,-1.19,-0.23,-0.17,-0.35,10.04
0.18,-0.99,-0.13,0.04,-0.56,10.12
0.95,0.12,-0.20,0.02,0.06,10.06
0.27,0.28,-0.28,-0.13,0.19,10.11
-0.18,0.31,-0.43,0.05,0.00,10.01
-0.17,0.37,-0.36,0.28,-0.33,9.93
1.19,0.74,-0.38,0.03,-0.21,9.52
1.08,0.62,-0.35,0.20,0.13,9.74
0.51,0.57,-0.41,-0.10,0.42,9.64
-1.33,0.87,-0.41,0.71,-0.34,10.01
-0.81,1.19,-0.30,0.27,-0.55,9.54
0.10,1.18,-0.17,-0.07,-0.33,9.57
0.00,0.71,-0.15,0.22,-0.11,10.10
-0.88,0.67,-0.19,0.01,0.11,10.17
-1.58,0.17,-0.18,-0.29,-0.15,9.94
-1.70,-0.43,-0.26,-0.34,-0.46,9.81
-0.84,-0.99,-0.27,-0.04,-0.55,9.58
0.20,-1.24,-0.11,-0.11,-0.36,9.44
-0.56,-1.26,-0.23,0.01,0.02,9.19
-1.00,-0.93,-0.22,0.34,-0.25,9.29
-0.88,0.16,-0.20,0.48,-0.50,9.64
0.08,1.85,-0.10,-0.07,-0.44,10.36
0.17,1.83,-0.23,-0.14,-0.22,11.00
-0.23,1.71,-0.28,-0.06,-0.01,11.12
-0.91,1.61,-0.27,0.06,-0.28,10.91
-0.07,1.89,-0.15,0.37,-0.48,10.32
0.05,2.15,-0.15,0.06,-0.05,10.30
-0.44,1.98,-0.21,0.03,0.37,10.16
-1.47,1.33,-0.21,0.09,0.16,10.07
-1.96,0.65,-0.31,-0.03,-0.25,9.53
-0.91,0.30,-0.13,0.41,-0.78,9.47
0.03,0.30,-0.21,0.05,-0.53,9.10
0.41,0.05,-0.10,-0.50,-0.15,8.89
-0.47,-0.36,-0.19,-0.05,0.02,9.42
-0.64,-0.16,-0.21,-0.33,-0.28,9.14
-0.65,-0.26,-0.19,-0.14,-0.60,9.14
0.10,-0.42,-0.17,-0.17,-0.63,9.04
1.09,-0.27,-0.22,-0.23,-0.09,9.11
0.84,0.11,-0.25,-0.11,0.23,9.44
-0.05,0.34,-0.25,0.04,0.23,9.87
-0.97,0.61,-0.25,-0.02,0.03,10.19
-1.20,0.78,-0.20,-0.24,-0.29,10.25
-0.30,0.59,-0.15,-0.05,-0.31,10.69
-0.27,0.62,-0.07,-0.02,0.05,10.70
-1.19,0.69,-0.01,0.05,0.24,10.90
-3.18,0.55,0.03,0.16,-0.22,10.72
-2.92,0.56,0.12,0.17,-0.52,10.65
-2.27,0.42,0.22,-0.23,-0.54,10.13
-2.16,-0.09,0.26,-0.19,-0.44,10.03
-2.27,-0.34,0.35,-0.10,-0.19,9.51
-2.41,-0.62,0.40,-0.24,-0.32,9.03
-1.99,-0.78,0.40,0.02,-0.48,8.84
-1.44,-0.80,0.47,0.13,-0.56,8.54
-0.74,-0.18,0.49,0.08,-0.56,8.61
0.14,0.10,0.48,-0.43,-0.48,8.57
0.72,-0.23,0.47,-0.32,-0.39,8.94
0.99,-0.21,0.52,-0.05,-0.30,9.24
1.32,0.30,0.54,-0.35,-0.27,9.21
1.30,0.02,0.43,-0.46,-0.33,9.27
1.48,-0.11,0.34,-0.16,-0.24,9.58
1.56,-0.08,0.43,-0.08,-0.23,9.63
1.65,-0.13,0.50,-0.16,-0.02,9.85
1.00,-0.05,0.48,0.15,0.10,10.26
0.27,0.18,0.53,0.01,0.06,10.33
0.07,0.32,0.61,-0.29,-0.21,10.11
0.22,0.12,0.62,-0.29,-0.30,10.29
-0.37,-0.08,0.66,0.17,-0.07,10.76
-0.66,0.10,0.78,0.05,-0.12,10.39
-0.72,-0.03,0.91,-0.43,-0.38,9.71
-0.30,0.07,0.83,0.17,-0.33,9.97
-0.40,0.49,0.82,-0.06,-0.25,9.85
-0.65,0.37,0.80,-0.49,-0.31,9.48
-0.42,-0.31,0.93,-0.52,-0.51,9.25
0.43,-0.39,0.87,-0.07,-0.38,9.69
0.46,-0.18,0.92,-0.21,-0.23,9.71
0.41,-0.39,0.88,-0.35,-0.16,9.99
0.31,-0.89,0.93,-0.61,-0.18,9.93
0.48,-1.06,0.94,-0.36,-0.20,10.25
0.33,-0.54,0.98,-0.36,-0.15,9.84
0.13,-0.51,1.02,-0.42,-0.17,9.79
-0.16,-0.27,0.98,0.10,-0.20,10.16
-0.40,0.53,1.12,-0.09,0.01,10.37
-0.94,0.32,1.12,-0.49,0.12,10.21
-1.42,-0.29,1.17,-0.47,-0.04,10.03
-1.90,-0.50,1.14,-0.03,-0.48,10.10
-0.65,-0.25,1.23,-0.35,-0.52,9.24
-0.25,-0.64,1.21,-0.15,-0.18,9.54
-0.59,-0.98,1.25,-0.33,0.01,9.25
-1.13,-1.02,1.27,-0.20,-0.16,9.01
-1.05,-0.70,1.38,-0.07,-0.50,9.13
0.28,-0.57,1.30,-0.27,-0.63,8.90
1.01,-0.52,1.53,0.04,-0.56,9.32
1.37,-0.03,1.62,-0.29,-0.26,9.32
0.45,0.34,1.64,-0.24,-0.03,9.92
0.09,0.39,1.56,-0.43,-0.11,10.21
0.05,0.18,1.71,-0.54,-0.32,10.35
0.14,-0.38,1.67,-0.52,-0.47,10.48
0.40,-0.98,1.98,-0.41,-0.02,10.52
-0.28,-1.04,1.99,-0.18,0.00,10.40
-0.64,-0.78,2.09,-0.07,-0.22,10.27
-0.40,-0.38,2.11,-0.26,-0.38,9.82
0.44,0.16,2.44,-0.03,-0.05,10.22
-0.15,0.09,2.50,-0.26,0.12,10.14
-0.42,-0.21,2.63,-0.62,-0.07,9.67
-0.29,-0.77,2.63,-0.49,-0.50,9.21
1.46,-0.76,2.87,-0.47,-0.41,8.88
1.53,-0.50,2.87,-0.11,0.06,9.31
0.73,-0.33,3.04,-0.29,0.25,9.34
0.17,-0.37,3.07,-0.74,-0.02,8.91
0.98,-0.21,3.27,-0.43,-0.45,9.56
1.44,-0.13,3.24,-0.76,-0.04,9.77
1.17,-0.39,3.32,-0.65,0.25,10.34
0.62,-0.84,3.28,-0.80,0.33,10.23
0.01,-1.48,3.52,-0.73,-0.08,10.00
-0.04,-1.28,3.39,-0.52,-0.22,9.86
0.50,-1.09,3.56,-0.72,-0.26,9.66
0.74,-1.22,3.65,-0.72,-0.19,9.79
0.74,-1.23,3.69,-0.58,0.04,10.15
0.31,-0.92,3.85,-0.33,0.16,10.72
0.01,-0.61,4.08,-0.67,0.20,10.74
-0.71,-0.37,4.07,-0.55,0.12,10.86
-1.32,0.59,4.22,-0.54,0.05,10.66
-1.07,0.52,4.28,-0.74,0.06,10.24
-1.14,0.16,4.35,-0.70,0.10,9.99
-1.11,0.19,4.30,-0.59,0.08,9.56
-1.03,0.88,4.53,-0.35,0.25,9.12
-1.37,1.10,4.49,-0.65,0.27,8.85
-1.76,1.14,4.51,-0.55,0.18,8.88
-1.83,1.23,4.62,-0.52,-0.10,8.93
-1.34,1.57,4.57,-0.68,-0.15,9.10
-1.11,0.93,4.47,-1.11,0.21,9.47
-1.05,0.25,4.53,-1.06,0.18,9.71
-1.32,-0.43,4.66,-0.91,-0.03,9.62
-0.60,-0.44,4.77,-0.70,-0.20,9.35
-0.14,-0.14,4.75,-0.80,-0.12,9.31
0.16,0.25,4.71,-0.87,0.24,9.59
0.02,0.56,4.75,-0.66,0.44,10.12
-1.19,0.25,4.91,-1.29,0.13,10.41
-1.07,-0.45,4.92,-1.03,-0.36,10.35
-0.05,-0.73,4.97,-0.72,-0.55,10.25
0.96,-0.78,5.13,-0.98,-0.40,9.17
2.03,-0.64,5.16,-1.01,-0.02,8.48
1.03,1.10,5.14,-0.25,0.25,8.63
0.51,2.30,5.20,-0.29,0.03,8.85
0.85,2.89,5.37,-0.67,-0.30,9.22
2.67,1.79,5.52,-1.31,0.02,10.15
2.47,0.65,5.52,-1.27,0.15,10.15
2.74,-0.06,5.53,-1.48,0.11,9.53
3.14,-0.36,5.62,-0.94,-0.02,9.26
3.20,0.87,5.58,-0.85,0.74,9.12
2.24,1.15,5.67,-0.97,0.85,9.40
1.13,1.27,5.67,-0.61,0.67,10.45
0.14,1.21,5.74,-0.90,0.28,10.89
0.10,0.89,5.84,-1.48,-0.07,10.77
1.26,-0.17,5.98,-1.04,0.50,11.18
0.07,-0.13,6.00,-0.98,0.83,11.16
-1.70,0.23,6.17,-0.88,0.72,11.16
-2.64,-0.02,6.33,-1.22,0.06,10.21
-2.04,-0.07,6.46,-0.99,-0.18,10.12
-1.53,0.35,6.41,-0.60,-0.10,10.14
-1.22,0.64,6.72,-1.23,0.02,9.50
-0.80,0.47,6.60,-0.80,0.13,9.37
-0.57,1.15,6.79,-0.82,0.10,9.49
-0.89,1.65,6.73,-1.13,0.03,9.52
-1.06,1.44,6.95,-1.27,-0.07,10.00
-0.49,0.71,7.02,-1.83,-0.29,9.95
1.01,-0.22,7.16,-0.97,0.20,10.62
0.42,-0.02,7.13,-1.54,0.40,10.14
-0.33,-0.26,6.97,-1.50,0.46,9.80
0.15,-0.36,7.09,-1.43,0.09,9.46
0.21,-0.31,7.26,-1.19,0.38,9.68
-0.19,-0.17,7.44,-1.27,0.62,9.96
-0.84,-0.23,7.31,-1.35,0.70,9.72
-1.69,-0.04,7.59,-1.42,0.09,9.34
-1.07,-0.07,7.54,-1.50,-0.01,8.72
-0.20,-0.10,7.72,-1.21,0.05,8.83
-0.18,0.45,7.63,-1.12,0.12,8.75
-0.59,1.02,7.61,-1.05,0.19,8.86
0.21,1.03,7.68,-1.72,-0.05,9.12
0.72,0.80,7.79,-1.44,0.14,10.06
0.60,0.80,7.86,-1.35,0.26,10.67
0.10,-0.17,7.96,-1.94,-0.19,10.33
1.06,-0.54,7.89,-1.45,-0.24,10.29
1.81,-0.40,8.02,-1.35,0.22,10.13
1.51,-0.02,8.05,-1.41,0.65,10.12
-0.77,0.46,8.03,-1.29,0.64,10.78
-1.33,0.82,8.00,-1.57,0.18,10.68
-0.82,0.78,8.13,-1.45,-0.11,10.49
-0.07,0.36,8.19,-1.75,-0.03,10.11
-0.02,0.05,8.15,-1.54,0.37,9.99
-1.51,0.14,8.18,-1.45,0.46,9.34
-1.65,0.15,8.22,-1.49,0.18,9.09
-1.38,-0.16,8.30,-1.37,0.05,8.91
-0.66,-0.10,8.41,-1.43,-0.04,8.67
-0.20,0.20,8.36,-1.56,-0.05,8.45
0.39,0.33,8.32,-1.55,0.04,8.46
0.84,0.41,8.29,-1.50,0.29,8.60
0.31,1.25,8.33,-1.33,0.23,9.48
0.26,1.27,8.31,-1.85,0.03,9.59
0.97,0.76,8.34,-2.01,-0.24,10.06
1.73,0.20,8.22,-1.87,-0.16,10.86
2.12,-0.33,8.24,-2.18,0.37,10.82
0.42,-1.01,8.11,-1.45,0.53,10.88
0.03,-0.62,8.13,-1.47,0.13,10.33
0.41,0.17,8.17,-1.27,-0.14,10.42
1.21,0.73,8.14,-1.80,0.55,10.38
0.27,0.13,8.18,-1.48,0.85,10.59
-1.22,0.12,8.15,-1.21,0.68,10.55
-1.67,0.79,8.24,-1.20,0.17,10.17
-0.39,0.98,8.17,-1.84,-0.19,9.33
0.21,0.41,8.25,-1.62,0.19,9.55
-0.14,0.10,8.14,-1.44,0.43,9.57
-0.70,-0.29,8.10,-1.64,0.42,9.11
-0.44,-0.85,8.01,-1.61,-0.38,8.41
0.88,-0.78,8.02,-1.48,-0.36,8.27
2.26,-0.10,8.07,-1.48,-0.19,8.81
2.78,0.38,7.88,-1.69,0.29,8.98
1.98,-0.12,7.84,-1.79,0.56,10.01
1.26,-0.28,7.61,-1.92,0.43,10.08
1.05,-0.62,7.66,-1.91,0.12,10.38
1.44,-0.79,7.50,-1.80,0.04,10.58
1.41,-0.99,7.43,-1.67,0.68,10.58
0.33,-0.80,7.28,-1.29,0.65,10.80
-0.51,-0.56,7.17,-1.38,0.45,10.79
-0.89,-0.49,7.14,-1.55,0.16,10.61
-0.76,-0.55,7.06,-1.61,0.35,10.86
-1.42,-1.03,6.99,-1.80,0.53,10.41
-1.92,-1.90,6.98,-1.55,0.32,9.74
-1.74,-1.95,6.93,-0.79,-0.16,9.75
-0.57,-0.41,6.91,-1.57,-0.11,8.33
-0.13,-0.27,6.74,-1.38,0.02,8.83
0.08,-0.18,6.62,-1.12,0.28,9.27
-0.11,-0.10,6.55,-1.52,0.43,9.24
-0.51,0.04,6.40,-1.08,-0.33,10.02
0.44,-0.09,6.30,-1.54,-0.39,9.60
1.48,-0.11,6.26,-1.53,-0.06,9.91
1.53,0.01,6.07,-1.44,0.46,10.34
-0.58,-0.78,5.74,-1.48,0.53,10.60
-1.03,-1.12,5.57,-1.21,-0.05,10.29
-0.27,-1.32,5.69,-1.27,-0.43,9.78
1.20,-1.27,5.68,-1.32,-0.31,9.65
1.83,-1.19,5.53,-1.08,0.36,9.94
-0.41,-0.94,5.43,-1.29,0.89,10.52
-1.71,-1.41,5.33,-1.50,0.60,10.36
-1.95,-2.03,5.30,-1.43,0.11,10.15
-0.96,-2.37,5.34,-0.91,-0.11,9.46
-0.75,-1.88,5.32,-0.99,0.08,9.12
-1.01,-1.50,5.21,-0.84,0.17,9.09
-1.43,-1.13,5.08,-0.97,0.12,9.09
-0.98,-0.69,5.09,-0.89,-0.14,9.44
-0.72,-0.61,5.00,-1.03,-0.16,9.59
-0.77,-0.80,5.03,-1.27,-0.21,9.46
-0.46,-0.97,4.92,-1.04,-0.31,9.60
-0.07,-0.94,4.78,-0.85,-0.28,9.69
0.36,-0.39,4.70,-0.80,0.04,9.68
0.22,-0.15,4.73,-0.73,0.16,9.83
-0.10,0.05,4.60,-1.04,0.15,9.74
-0.46,0.44,4.57,-0.53,0.07,10.60
-0.51,0.41,4.40,-0.97,0.03,10.49
-0.70,-0.14,4.36,-1.22,0.27,10.46
-1.09,-0.73,4.44,-0.97,0.39,10.80
-2.70,-1.25,4.34,-0.97,0.32,10.59
-3.18,-1.57,4.32,-1.22,-0.04,10.08
-3.31,-2.33,4.21,-1.09,-0.25,9.66
-2.75,-2.92,4.29,-0.91,-0.34,9.19
-2.04,-2.89,4.29,-0.75,-0.38,8.91
-1.40,-2.12,4.29,-0.79,-0.05,8.36
-1.63,-1.99,4.26,-0.67,-0.05,8.45
-1.39,-1.42,4.19,-0.83,-0.13,8.43
-0.39,-0.81,4.14,-0.95,-0.30,9.12
0.32,-1.15,4.00,-1.44,-0.12,9.13
0.74,-1.86,3.99,-1.25,-0.01,9.41
0.60,-2.17,3.96,-0.85,-0.12,9.86
1.17,-1.96,4.00,-0.63,-0.33,9.67
1.97,-1.43,4.04,-0.46,-0.16,9.94
2.13,-0.93,4.11,-0.63,0.20,10.04
1.27,-0.52,4.02,-0.71,0.42,10.57
0.30,-0.36,3.88,-0.73,0.40,10.82
-0.21,-1.47,4.08,-0.64,-0.56,10.71
1.06,-1.43,4.17,-0.61,-0.51,10.21
2.04,-1.62,4.41,-0.83,-0.08,9.59
0.67,-1.65,4.27,-0.41,0.59,9.43
-0.47,-1.41,4.21,-0.60,0.09,8.78
-0.22,-1.02,4.21,-0.65,-0.35,8.66
0.75,-0.96,4.34,-0.62,-0.50,8.70
2.24,-1.08,4.43,-0.72,-0.02,9.32
1.87,-0.87,4.45,-0.59,0.12,9.47
1.37,-0.53,4.34,-0.67,0.08,9.64
1.28,-0.23,4.34,-1.05,-0.04,9.41
1.60,-0.11,4.27,-0.70,-0.05,9.87
1.31,0.19,4.32,-0.82,0.40,10.58
0.56,0.03,4.32,-0.95,0.40,10.85
-0.12,-0.30,4.31,-0.82,0.30,11.21
-0.89,-0.97,4.19,-0.81,0.18,11.24
-1.27,-1.20,4.26,-0.87,0.19,11.15
-1.69,-1.43,4.27,-0.60,0.12,11.14
-2.11,-1.39,4.29,-0.47,0.06,11.13
-2.32,-1.52,4.48,-0.87,-0.10,10.32
-2.18,-1.81,4.43,-0.64,-0.18,10.24
-2.35,-1.73,4.38,-0.70,-0.30,9.82
-2.04,-1.57,4.38,-0.91,-0.38,9.20
-1.11,-1.51,4.39,-1.06,-0.34,8.94
-0.44,-1.61,4.26,-0.70,0.09,8.90
-0.63,-1.50,4.35,-0.87,-0.06,8.75
-0.63,-1.30,4.24,-0.65,-0.36,8.71
1.38,-0.66,4.15,-0.85,-0.24,8.60
1.52,-0.27,4.04,-0.64,0.19,9.09
0.89,-0.07,3.98,-0.73,0.43,9.34
0.22,-0.28,3.90,-0.98,0.11,9.26
1.31,-0.26,3.89,-0.47,-0.29,9.97
1.58,-0.14,3.86,-0.56,0.05,10.22
1.03,-0.35,3.82,-0.92,0.51,10.38
-0.10,-1.01,3.80,-1.15,0.51,10.30
-0.86,-1.89,3.67,-1.05,0.09,10.27
-0.00,-2.10,3.74,-0.25,-0.05,10.54
-0.18,-2.05,3.81,-0.59,0.25,10.32
-1.02,-2.32,3.81,-0.93,0.32,9.98
-1.32,-2.10,3.65,-0.50,-0.28,9.72
-0.71,-1.32,3.61,-0.55,-0.25,9.53
-0.65,-0.88,3.55,-0.59,-0.03,9.59
-1.07,-1.00,3.45,-0.81,0.14,9.48
-1.08,-1.07,3.32,-0.42,-0.33,9.65
-0.52,-0.83,3.22,-0.60,-0.31,9.31
0.05,-0.75,3.19,-0.81,-0.20,9.36
0.08,-0.82,2.96,-0.78,-0.09,9.36
0.16,-0.80,2.84,-0.57,-0.03,9.43
0.86,-0.54,2.61,-0.49,-0.10,9.44
1.19,-0.57,2.68,-0.38,0.05,9.90
0.71,-0.46,2.61,-0.22,0.18,10.46
-0.13,-1.12,2.43,-0.93,-0.06,10.23
-0.00,-1.86,2.34,-0.80,-0.25,10.64
0.31,-2.30,2.15,-0.58,-0.03,10.69
0.33,-2.54,2.16,-0.53,0.24,10.57
-1.04,-2.97,1.99,-0.73,0.19,9.92
-1.11,-3.36,1.92,-0.68,-0.17,9.71
-0.91,-3.46,1.75,-0.23,-0.42,9.74
-0.05,-3.29,1.72,-0.68,-0.38,9.22
0.46,-3.47,1.55,-0.83,-0.30,8.89
1.05,-3.45,1.38,-0.19,0.02,9.01
0.80,-2.91,1.19,-0.46,-0.12,8.65
1.01,-2.49,1.09,-0.21,-0.28,8.73
2.10,-1.71,0.67,-0.30,-0.26,9.23
2.51,-1.48,0.60,-0.26,-0.01,9.67
2.21,-1.42,0.46,-0.16,0.22,10.22
1.76,-1.59,0.28,-0.26,0.30,10.25
0.94,-1.74,-0.00,0.14,-0.19,10.68
1.25,-1.70,-0.15,0.15,-0.28,10.41
2.01,-1.79,-0.16,-0.12,-0.16,10.23
2.09,-2.00,-0.32,0.12,0.15,10.38
0.73,-2.33,-0.62,0.03,0.19,10.30
0.30,-2.71,-0.71,0.12,-0.09,10.22
0.69,-3.06,-0.80,0.06,-0.36,10.01
1.42,-3.45,-0.95,0.14,-0.46,9.71
2.28,-3.27,-0.99,0.35,0.10,9.49
1.64,-2.86,-1.24,0.51,0.46,9.54
0.82,-2.53,-1.32,0.15,0.46,9.35
0.29,-2.33,-1.52,0.33,0.15,9.61
0.17,-2.46,-1.68,-0.15,0.07,10.14
0.33,-3.45,-1.83,-0.37,0.11,10.17
0.21,-4.65,-1.89,-0.22,0.18,10.29
0.31,-5.36,-2.05,-0.13,0.26,9.85
-0.42,-4.83,-2.09,0.79,0.31,9.96
-0.98,-4.27,-2.18,0.63,0.27,9.66
-1.59,-3.74,-2.19,0.79,0.20,10.00
-1.97,-3.34,-2.19,0.55,0.01,9.97
-1.93,-3.18,-2.41,0.47,-0.04,9.99
-1.93,-3.27,-2.47,0.57,-0.03,10.06
-2.02,-3.22,-2.66,0.93,0.16,10.15
-1.99,-2.80,-2.54,0.95,0.30,10.17
-2.92,-2.14,-2.87,0.87,-0.03,9.70
-2.38,-2.18,-2.85,0.56,-0.17,9.36
-1.75,-2.52,-3.10,0.69,-0.28,9.48
-1.60,-2.68,-3.24,1.07,-0.05,9.92
-1.33,-3.07,-3.38,0.62,-0.06,9.33
-1.08,-3.19,-3.42,0.94,-0.23,9.56
-0.71,-3.12,-3.56,0.77,-0.33,9.22
-0.33,-2.87,-3.63,0.95,-0.17,9.29
0.01,-2.50,-3.66,1.03,-0.07,9.41
-0.03,-2.14,-3.92,1.08,0.28,9.69
-0.23,-1.57,-4.11,1.28,0.31,10.11
-0.61,-1.25,-4.27,1.16,0.53,10.37
-2.48,-2.04,-4.50,0.60,0.22,10.05
-2.65,-2.37,-4.67,0.89,-0.02,9.99
-2.20,-2.38,-4.69,1.11,-0.36,9.50
-1.33,-2.35,-4.97,1.18,-0.36,9.06
-0.62,-2.20,-4.91,1.09,0.20,8.96
-1.59,-2.20,-5.24,1.31,0.15,9.08
-1.77,-1.98,-5.26,1.30,-0.24,8.96
-1.16,-2.17,-5.40,0.91,-0.47,8.50
0.10,-2.47,-5.60,0.97,-0.51,8.50
1.91,-2.49,-5.96,1.38,-0.07,9.03
1.95,-2.17,-5.99,1.47,0.26,9.78
0.92,-2.03,-6.17,1.18,0.29,10.14
-0.05,-1.97,-6.46,1.41,0.25,10.82
-0.61,-1.83,-6.55,1.27,-0.04,10.65
-0.63,-1.38,-7.00,1.52,-0.09,10.52
-0.68,-1.05,-7.08,1.46,-0.05,10.19
-1.30,-0.64,-7.59,2.14,0.27,9.88
-1.71,-0.07,-7.45,2.18,0.35,9.97
-2.14,0.71,-7.69,2.12,0.05,9.63
-2.00,0.89,-7.88,2.20,-0.23,8.83
-1.15,1.07,-7.81,2.06,-0.45,8.47
-0.14,2.20,-8.54,2.15,-0.13,8.39
-0.11,2.55,-8.55,2.15,0.22,9.20
-1.01,2.23,-8.85,2.09,0.30,9.86
-1.76,-0.53,-8.91,0.92,-0.34,10.49
-1.25,-2.11,-9.27,1.05,-0.94,10.78
0.19,-3.35,-9.53,1.23,-0.71,10.92
1.25,-4.09,-9.47,0.95,-0.23,10.51
-0.05,-5.01,-10.13,2.12,0.67,10.61
-1.11,-4.08,-10.13,2.18,0.49,10.33
-2.35,-3.28,-10.54,2.03,0.22,9.94
-2.53,-2.90,-10.44,1.70,-0.01,9.69
-1.55,-2.90,-10.56,1.57,-0.19,9.23
-1.43,-2.08,-10.77,2.60,0.37,9.87
-2.57,-1.07,-10.97,2.44,-0.17,9.29
-3.22,-0.61,-11.34,2.29,-0.36,8.66
-0.98,0.51,-11.41,2.95,-0.40,9.22
-0.72,0.82,-11.47,2.69,0.15,9.45
-1.22,0.74,-11.38,2.46,0.38,10.01
-2.44,0.23,-11.71,2.40,0.09,10.12
-1.81,-0.91,-11.86,2.16,-0.76,9.32
-0.04,-1.36,-12.14,2.35,-0.62,9.10
0.90,-2.01,-12.27,2.51,-0.05,9.10
0.56,-2.46,-12.29,2.54,0.34,9.01
-0.23,-2.26,-12.56,2.90,0.27,9.33
-1.01,-1.67,-12.72,2.08,-0.35,9.32
0.01,-2.17,-12.98,2.00,-0.43,9.56
0.73,-2.90,-12.95,2.24,-0.28,10.18
0.81,-3.52,-13.34,2.68,0.03,10.08
0.66,-3.41,-13.24,2.72,-0.01,9.67
0.91,-3.06,-13.43,2.83,-0.17,9.01
1.24,-2.23,-13.47,3.34,-0.06,9.15
0.68,0.03,-13.45,3.15,0.39,9.30
-0.12,0.50,-13.53,3.31,0.40,9.91
-0.72,0.52,-13.45,2.99,0.14,9.81
-0.95,0.37,-13.40,2.86,-0.24,9.80
-0.08,0.39,-13.31,3.14,-0.39,10.08
0.27,0.25,-13.34,3.10,-0.02,9.98
-0.09,0.03,-13.28,2.91,0.11,9.56
-0.27,-0.52,-13.32,2.98,-0.10,9.16
0.19,-0.78,-13.29,3.28,-0.32,9.15
0.68,-0.04,-13.19,3.28,-0.17,9.45
0.67,0.09,-13.19,2.94,0.00,9.77
0.76,-0.35,-13.13,2.63,0.13,10.02
0.57,-1.31,-13.05,2.81,-0.05,10.72
0.83,-1.46,-13.06,2.73,-0.12,10.48
1.07,-1.48,-13.07,3.00,-0.00,10.50
0.75,-1.32,-13.09,3.00,0.07,10.25
0.17,-0.43,-12.92,3.26,0.26,10.60
-0.43,0.05,-12.86,3.36,0.22,10.81
-1.00,0.37,-12.76,3.21,0.25,10.90
-1.42,0.49,-12.64,2.84,0.05,10.44
-1.50,0.26,-12.72,2.67,-0.24,9.81
-0.35,0.69,-12.63,3.45,-0.25,9.40
-0.36,1.39,-12.67,3.61,0.06,9.14
-0.41,1.94,-12.50,3.36,0.25,8.70
-0.98,2.67,-12.53,3.17,-0.15,8.47
-0.61,3.21,-12.58,3.15,-0.26,8.70
-0.25,3.59,-12.64,2.87,-0.32,8.93
-0.08,3.37,-12.78,2.63,-0.21,9.39
0.33,1.72,-12.76,2.78,0.09,10.36
0.02,1.06,-12.61,2.83,0.04,10.87
-0.45,0.78,-12.71,2.62,-0.09,10.60
-0.20,0.43,-12.80,2.39,-0.15,10.21
0.18,0.07,-12.80,2.81,-0.06,10.47
-0.37,0.41,-12.80,2.84,0.53,10.26
-1.21,0.57,-12.69,2.82,0.58,10.23
-2.73,0.58,-12.76,3.17,0.43,10.69
-3.36,0.67,-12.70,2.59,-0.29,10.05
-2.61,0.34,-12.65,2.53,-0.27,10.13
-1.97,-0.26,-12.65,2.25,-0.04,9.55
-2.56,-0.83,-12.74,2.78,0.05,9.39
-2.92,-0.11,-12.82,2.69,-0.20,8.26
-2.54,0.10,-12.87,2.66,-0.22,8.16
-2.12,0.33,-12.97,2.90,-0.36,8.39
-1.65,0.69,-13.05,2.91,-0.29,8.51
-1.10,0.95,-12.99,2.76,-0.17,8.83
-0.74,0.62,-13.38,2.27,-0.22,9.06
-0.26,0.32,-13.33,2.61,-0.22,9.60
-0.13,0.30,-13.48,2.99,-0.17,10.14
0.15,-0.27,-13.51,2.31,-0.23,9.65
0.44,-0.70,-13.67,2.73,-0.35,9.78
0.87,-0.51,-13.72,3.16,-0.20,10.11
0.97,-0.15,-13.78,2.79,-0.11,9.73
0.66,-0.21,-13.79,3.05,0.01,10.06
0.80,-0.32,-13.85,2.78,-0.11,9.51
0.97,-0.49,-13.79,3.18,-0.20,9.55
1.47,-0.24,-13.75,3.18,-0.30,9.41
1.69,-0.24,-13.94,2.92,-0.23,8.79
2.06,0.67,-13.96,3.10,-0.10,9.03
2.08,0.85,-14.06,3.10,0.07,9.11
1.81,0.79,-13.93,3.10,0.10,9.71
1.61,0.25,-14.11,2.68,-0.49,9.52
2.53,0.07,-14.00,3.00,-0.59,9.96
3.37,0.18,-14.11,3.12,-0.21,10.13
3.37,0.17,-14.08,3.11,0.27,10.33
1.41,0.09,-14.13,2.95,0.49,10.41
0.96,0.34,-14.04,3.37,0.37,10.68
0.52,0.68,-13.97,3.47,0.05,10.78
0.26,0.97,-13.96,3.09,0.04,10.69
0.10,0.83,-13.78,2.97,0.19,10.73
-1.13,0.45,-13.89,3.08,0.34,11.29
-1.97,0.42,-13.75,3.08,0.29,11.26
-2.69,0.13,-13.68,3.09,0.15,11.30
-3.22,-0.73,-13.61,2.85,-0.09,10.25
-2.87,-0.98,-13.51,3.03,-0.13,9.85
-2.99,-0.85,-13.44,3.22,0.07,9.67
-3.73,-0.28,-13.49,3.14,0.22,9.36
-4.32,0.36,-13.54,3.17,-0.27,8.79
-3.40,0.67,-13.45,3.06,-0.36,8.66
-2.80,1.03,-13.52,3.06,-0.39,8.84
-2.31,1.35,-13.61,3.08,-0.19,9.22
-2.31,1.31,-13.61,2.88,-0.06,9.22
-2.02,1.28,-13.74,3.10,-0.38,9.58
-1.40,1.49,-13.75,2.84,-0.40,9.34
-0.62,1.35,-13.78,2.91,-0.19,9.39
-0.74,1.24,-13.90,3.22,0.15,9.50
-1.26,1.57,-13.84,3.21,0.02,9.28
-1.48,1.81,-13.84,3.23,-0.11,9.37
-1.01,1.86,-13.85,3.05,-0.14,9.44
-0.82,1.11,-13.83,2.86,0.07,9.68
-1.20,0.68,-13.81,2.98,0.08,9.78
-1.56,0.08,-13.90,2.85,0.01,9.57
-1.10,-0.36,-13.81,2.81,-0.21,9.31
-0.86,-0.75,-13.74,2.86,-0.41,8.93
0.08,-0.05,-13.78,3.06,-0.09,8.57
-0.19,0.35,-13.90,3.01,-0.01,8.55
-0.49,0.72,-13.95,2.92,0.08,8.58
-0.71,1.69,-14.03,3.26,-0.09,9.65
-0.73,1.98,-13.87,2.89,-0.02,9.93
-0.63,1.73,-13.90,2.61,-0.10,10.31
-0.66,0.96,-14.03,2.41,-0.15,10.46
-0.14,-0.24,-14.11,2.99,-0.20,10.29
0.05,-0.45,-14.09,3.14,-0.12,9.94
0.16,-0.32,-14.09,3.23,0.02,9.65
-0.08,0.10,-14.07,3.45,0.20,9.92
-0.98,0.59,-14.10,3.43,0.19,10.08
-1.14,0.40,-13.96,2.64,-0.34,10.07
-0.39,-0.32,-13.99,2.77,-0.51,10.13
0.37,-0.90,-14.03,2.92,-0.42,10.15
1.03,-1.18,-14.10,2.85,-0.06,9.35
0.66,-1.30,-14.04,3.24,0.00,9.35
0.45,-1.01,-14.08,3.12,-0.06,8.98
0.90,-0.39,-14.07,3.30,-0.21,9.02
1.65,1.13,-13.92,3.03,-0.07,9.30
1.44,1.46,-13.94,2.93,0.09,9.46
1.12,1.48,-13.93,2.95,-0.07,9.59
1.44,1.50,-14.00,3.07,-0.28,9.60
1.84,1.67,-13.93,3.29,-0.36,9.71
2.48,1.76,-13.78,3.07,0.32,9.69
1.58,1.64,-13.76,3.18,0.41,9.98
0.60,1.77,-13.82,3.37,0.16,10.13
1.11,2.04,-13.64,3.02,-0.27,9.99
1.49,1.58,-13.48,3.12,0.07,10.50
0.99,1.12,-13.49,3.24,0.35,10.88
0.06,0.90,-13.39,3.28,0.42,11.06
-1.50,0.78,-13.23,3.11,0.01,10.53
-1.54,0.81,-13.13,2.97,-0.19,10.32
-1.26,0.72,-13.05,2.90,-0.23,9.89
-0.87,0.68,-13.01,3.20,0.05,10.21
-2.39,0.83,-13.03,2.82,0.19,9.92
-3.02,0.75,-12.98,2.71,-0.15,9.86
-2.48,0.61,-12.93,2.76,-0.44,9.78
-1.93,0.47,-13.04,2.95,-0.45,9.92
-0.94,0.56,-12.89,2.77,-0.21,9.73
-1.35,0.30,-12.89,2.81,0.37,9.72
-2.27,0.44,-12.92,2.95,0.24,9.52
-2.60,0.95,-12.96,3.15,-0.20,9.51
-1.29,1.52,-12.79,2.51,-0.13,9.28
-1.17,1.20,-12.78,2.77,0.25,9.86
-1.96,1.09,-12.61,3.17,0.34,10.20
-2.69,1.42,-12.54,2.87,0.04,9.89
-2.96,1.59,-12.48,2.61,-0.24,9.53
-1.72,1.55,-12.44,2.89,-0.03,9.52
-2.01,1.70,-12.30,3.13,0.14,9.62
-2.61,1.99,-12.21,2.86,0.09,9.19
-2.68,2.05,-12.05,2.88,-0.25,8.84
-1.07,3.20,-11.97,3.04,-0.49,8.81
-0.61,3.91,-11.89,2.92,-0.15,9.09
-0.83,4.05,-11.94,2.56,0.23,9.25
-1.59,3.03,-11.73,2.97,-0.30,9.73
-0.94,3.11,-11.67,2.99,-0.64,9.64
0.08,3.06,-11.42,2.65,-0.53,9.47
0.58,2.81,-11.39,2.56,-0.19,9.57
0.24,2.30,-11.13,2.51,0.40,9.63
-0.64,2.33,-11.09,2.95,0.28,9.93
-1.30,2.35,-10.87,2.85,-0.02,9.71
-0.85,2.20,-10.58,2.46,-0.47,9.26
0.92,2.47,-10.08,2.60,-0.05,9.69
0.59,2.57,-9.97,2.45,0.40,9.81
-0.47,2.60,-9.83,2.52,0.58,10.11
-1.29,2.50,-9.55,2.23,0.26,9.79
-0.86,2.52,-9.15,2.60,-0.44,9.48
0.09,3.02,-8.80,2.70,-0.24,9.52
0.06,3.60,-8.65,2.45,0.34,9.70
-1.10,3.89,-8.37,2.20,0.54,9.65
-2.34,4.16,-8.01,2.42,-0.28,9.72
-1.42,4.53,-7.65,2.48,-0.62,9.71
-0.34,4.79,-7.41,2.34,-0.37,9.83
-0.03,4.77,-7.02,2.19,0.20,9.85
-0.61,4.66,-6.72,2.05,0.46,9.88
-2.00,4.81,-6.20,2.25,-0.24,9.56
-1.38,5.10,-5.92,2.09,-0.53,9.38
-0.56,5.09,-5.60,2.00,-0.36,9.37
-0.18,4.46,-4.80,1.68,0.31,9.73
-0.80,4.19,-4.45,1.66,0.33,9.86
-1.33,4.03,-4.12,1.58,0.03,9.79
-1.30,4.08,-3.84,1.49,-0.37,9.58
0.04,4.52,-3.18,1.34,-0.25,9.59
0.06,4.71,-2.95,1.32,0.09,9.70
-0.01,4.72,-2.63,1.18,0.26,9.73
-0.42,4.60,-2.29,0.96,0.15,9.60
-0.64,4.65,-2.02,1.09,-0.17,9.63
0.34,4.78,-1.42,0.75,-0.29,9.34
0.65,4.59,-1.13,0.71,-0.17,9.52
0.54,4.41,-0.91,0.65,0.05,9.61
0.08,4.08,-0.25,0.66,0.17,9.83
-0.12,3.84,0.09,0.48,-0.09,9.71
0.00,3.86,0.38,0.68,-0.28,9.90
0.39,4.19,0.74,0.64,-0.21,10.02
0.21,4.09,1.13,0.00,0.03,9.95
0.14,3.70,1.37,-0.03,-0.00,9.84
0.16,3.42,1.58,0.11,-0.01,9.84
0.30,3.27,1.88,0.03,0.04,9.80
0.21,3.11,2.12,-0.01,0.01,9.80
-0.13,2.72,2.68,-0.36,-0.11,9.67
0.08,2.57,2.79,-0.56,-0.20,9.55
0.31,2.26,2.97,-0.38,-0.11,9.63
0.44,2.88,3.41,0.13,0.19,10.13
-0.58,3.75,3.72,-0.05,0.27,10.38
-1.13,3.89,3.79,-0.97,0.00,9.79
-0.91,3.33,3.94,-0.66,-0.24,10.39
-0.44,2.56,4.26,-1.27,-0.09,10.03
-0.21,1.75,4.53,-1.02,0.09,10.11
-0.50,1.18,4.73,-0.55,0.08,10.27
-0.86,1.03,4.72,-0.71,0.21,9.69
-1.41,1.24,5.13,-0.76,0.13,9.78
-1.73,1.33,5.16,-0.90,-0.20,9.82
-1.13,0.97,5.56,-1.37,-0.26,9.46
-0.56,0.87,5.59,-0.76,-0.30,9.82
-0.50,1.34,5.86,-1.18,-0.04,9.30
-0.56,1.15,5.82,-0.94,-0.10,9.30
-0.14,1.30,6.04,-0.82,-0.16,9.59
-0.22,1.44,6.00,-1.06,-0.27,9.43
0.29,1.20,6.30,-1.32,-0.09,9.86
0.37,0.60,6.14,-1.57,-0.10,9.58
0.59,0.24,6.16,-1.24,0.01,9.78
0.43,0.30,6.26,-1.05,-0.11,9.57
0.34,0.75,6.16,-0.88,-0.10,9.39
0.30,1.69,6.23,-1.21,-0.15,9.30
0.37,1.71,6.14,-1.14,0.01,9.61
0.58,1.74,6.22,-1.11,0.05,10.00
0.18,1.58,6.15,-1.28,0.08,10.03
-0.01,0.74,6.21,-1.35,-0.30,9.84
0.24,0.31,6.13,-1.35,-0.35,9.42
0.92,0.37,6.17,-1.15,-0.26,9.21
0.99,0.95,6.08,-0.90,0.19,9.69
0.50,1.20,6.10,-0.82,0.34,10.10
-0.19,1.35,6.14,-1.11,0.16,10.15
-0.36,1.40,6.18,-1.20,-0.18,10.12
0.18,1.34,6.20,-1.43,-0.29,10.12
0.33,0.80,6.06,-1.22,0.07,9.93
0.00,0.90,6.09,-0.93,0.01,9.78
-0.03,1.43,6.10,-0.74,0.01,9.56
-0.90,1.93,6.12,-1.26,0.17,9.64
-1.32,1.54,6.10,-1.24,0.02,9.86
-1.04,1.28,6.23,-1.18,-0.31,10.02
-0.68,1.25,6.14,-1.06,-0.35,9.96
-0.23,1.10,6.44,-1.21,-0.08,9.69
-0.40,1.13,6.33,-0.84,0.01,9.75
-0.51,1.54,6.54,-0.81,-0.06,9.71
-0.37,2.13,6.56,-0.96,-0.17,9.68
-0.17,2.40,6.87,-1.10,-0.24,10.34
0.14,2.29,6.87,-1.01,-0.27,10.40
0.57,2.25,7.08,-1.07,-0.16,10.39
0.87,2.23,7.22,-1.53,-0.06,9.90
0.70,2.14,7.13,-1.10,0.17,10.17
-0.57,1.49,7.47,-1.56,0.04,9.74
-0.54,0.85,7.58,-1.24,-0.28,9.63
-0.08,0.40,7.90,-1.44,-0.39,9.27
1.30,0.41,8.12,-1.04,-0.09,9.27
1.26,0.91,8.41,-1.06,0.09,9.37
0.55,1.49,8.42,-1.31,0.12,9.23
0.17,1.70,8.66,-1.46,-0.02,9.14
0.78,1.64,8.90,-1.77,-0.35,9.01
1.83,1.86,9.24,-1.27,0.02,9.32
1.71,2.28,9.40,-1.75,0.12,9.03
1.36,2.42,9.45,-1.30,0.24,9.49
-0.12,2.33,9.74,-1.94,0.32,10.27
-0.82,2.01,9.92,-1.72,0.21,10.95
-0.87,1.57,10.20,-2.00,-0.08,10.86
-0.63,1.06,10.21,-1.88,-0.09,10.68
-1.64,1.69,10.78,-1.59,0.53,10.88
-3.03,1.91,10.72,-1.93,0.53,10.60
-3.95,1.64,10.98,-2.08,0.17,10.41
-3.88,1.25,11.06,-2.27,-0.34,9.93
-3.29,0.98,11.06,-2.01,-0.34,9.87
-3.08,0.68,11.49,-2.32,-0.09,9.67
-3.34,0.13,11.45,-2.27,-0.03,9.50
-3.47,-0.48,11.79,-2.44,-0.07,9.33
-3.35,-0.65,11.83,-2.33,-0.15,9.29
-3.14,-0.16,12.21,-2.36,-0.30,9.46
-2.77,0.01,12.16,-2.48,-0.23,9.09
-2.19,-0.27,12.38,-2.29,-0.22,8.99
-1.25,0.51,12.53,-2.04,-0.28,9.16
-0.98,1.20,12.78,-2.17,-0.15,9.44
-0.83,1.48,12.77,-2.53,-0.24,9.38
-0.21,1.10,12.69,-2.59,-0.15,9.19
0.06,0.49,12.84,-2.32,0.02,9.15
-0.08,0.52,12.92,-2.20,-0.06,9.07
-0.06,0.71,13.00,-2.37,-0.30,8.88
0.52,0.86,12.91,-2.32,-0.39,8.76
1.54,0.90,13.02,-2.50,-0.29,8.65
2.02,0.93,13.02,-2.44,0.08,9.41
1.63,0.95,12.96,-2.64,0.15,9.57
1.29,0.59,12.83,-2.87,-0.11,9.47
2.27,-0.64,12.79,-2.86,-0.27,9.71
2.08,-1.06,12.73,-2.72,0.10,9.99
1.60,-1.30,12.66,-2.74,0.34,10.00
1.14,-1.36,12.60,-2.79,0.26,10.03
0.52,-1.45,12.45,-2.73,-0.09,10.47
0.48,-1.33,12.41,-2.73,-0.10,10.72
0.28,-1.57,12.37,-2.98,-0.10,10.46
0.31,-1.86,12.16,-2.90,0.11,10.34
-0.00,-1.83,12.23,-2.38,0.27,10.62
-1.05,-0.79,12.09,-2.39,-0.11,10.17
-0.81,-0.34,12.24,-2.54,-0.48,9.97
-0.21,-0.34,12.00,-2.75,-0.62,9.58
1.48,0.05,11.88,-2.37,0.07,9.84
0.74,-0.10,11.63,-2.28,0.41,9.91
-0.09,-0.38,11.74,-2.46,0.22,9.95
-0.64,-0.58,11.76,-2.25,-0.40,10.00
1.19,0.55,11.79,-2.45,-0.17,9.87
0.99,0.65,11.55,-2.43,0.32,9.99
-0.04,0.29,11.41,-2.45,0.57,10.11
-1.11,-0.21,11.27,-2.59,0.10,9.81
-1.06,-0.37,11.08,-2.15,-0.49,9.79
1.32,-0.20,11.23,-2.32,-0.30,9.51
1.20,-0.48,11.22,-2.52,0.28,9.68
0.27,-0.88,11.12,-2.47,0.42,10.14
-0.56,-1.21,10.87,-2.30,-0.28,9.91
-0.02,-1.37,10.81,-2.42,-0.53,9.49
1.12,-1.54,10.70,-2.23,-0.28,9.34
1.49,-1.73,10.77,-1.98,0.06,9.60
0.01,-0.55,10.62,-2.00,0.25,10.16
-0.43,-0.49,10.62,-2.42,-0.05,10.22
-0.48,-0.60,10.47,-2.40,-0.30,10.74
-0.20,-0.52,10.34,-2.22,-0.24,11.09
-0.11,-0.67,10.24,-2.55,0.15,10.74
-0.93,-1.71,10.00,-2.10,0.02,9.87
-1.51,-1.91,9.90,-1.80,-0.17,9.48
-1.25,-1.41,9.92,-1.97,-0.30,8.98
-0.25,-0.89,9.70,-2.10,-0.04,9.29
-0.25,-0.96,9.55,-2.53,0.24,9.27
-0.95,-1.64,9.50,-2.40,0.08,9.52
-1.18,-2.08,9.37,-1.82,-0.38,9.68
0.93,-1.76,9.40,-1.86,-0.68,8.96
2.17,-1.36,9.32,-1.99,-0.25,9.09
2.07,-1.20,9.17,-1.88,0.31,9.82
0.98,-1.08,8.99,-1.86,0.52,10.26
0.22,-0.96,8.98,-1.85,0.18,10.50
0.84,-1.08,8.93,-1.72,-0.52,9.97
1.77,-0.86,8.94,-1.63,-0.24,9.67
2.01,-0.23,8.87,-1.54,0.22,9.58
-0.03,0.63,8.49,-1.87,0.07,9.53
0.13,0.30,8.35,-1.91,-0.32,9.65
1.02,0.01,8.40,-1.55,-0.40,10.07
1.70,-0.17,8.37,-1.67,-0.11,9.79
0.64,-0.07,8.25,-1.47,0.17,9.84
-0.08,0.13,8.07,-1.74,-0.07,9.48
0.29,0.12,7.95,-1.66,-0.33,9.50
1.25,0.12,7.87,-1.47,-0.25,9.83
1.41,-0.07,7.73,-1.73,0.26,9.79
-0.84,-0.97,7.54,-1.47,0.31,10.63
-1.19,-1.14,7.40,-1.68,-0.08,10.74
-1.10,-1.72,7.38,-2.19,-0.43,10.46
-0.16,-2.86,7.25,-1.51,0.32,10.78
-1.08,-2.67,7.10,-1.60,0.49,10.58
-2.20,-2.39,6.93,-1.49,0.28,10.18
-2.84,-2.16,6.94,-1.40,-0.23,10.03
-1.12,-1.34,6.80,-1.36,-0.40,9.24
-0.51,-0.46,6.75,-1.01,-0.11,9.61
-1.02,0.58,6.47,-1.17,0.26,9.47
-1.96,1.14,6.35,-1.59,0.32,9.40
-2.61,1.06,6.22,-1.76,-0.17,9.54
-0.72,-0.12,5.94,-1.12,-0.74,9.69
0.68,-0.29,6.02,-1.28,-0.42,9.45
0.64,-0.46,5.95,-1.46,0.01,9.20
0.13,-0.57,5.77,-1.33,0.20,9.29
-0.19,-0.15,5.42,-1.09,-0.36,9.47
0.61,-0.12,5.48,-1.30,-0.57,9.55
1.65,-0.53,5.40,-1.15,-0.42,9.89
1.43,-1.08,5.26,-1.12,0.33,9.97
0.56,-1.14,5.11,-1.05,0.09,9.86
0.50,-1.26,5.00,-1.53,-0.36,9.23
1.56,-1.56,4.78,-1.47,-0.51,9.04
2.50,-1.70,4.70,-0.85,-0.15,9.64
1.44,-1.02,4.59,-1.00,0.39,9.88
0.59,-0.89,4.51,-1.31,0.12,9.65
0.53,-0.93,4.34,-1.17,-0.29,9.52
1.53,-0.12,4.01,-0.79,-0.03,9.84
1.14,0.04,3.91,-0.87,0.32,9.94
0.07,-0.25,3.74,-1.17,0.41,9.83
-0.57,-0.60,3.66,-1.06,0.08,9.72
-0.35,-0.50,3.44,-0.55,-0.27,10.43
0.23,-0.45,3.32,-1.06,0.00,10.14
-0.16,-1.16,3.25,-1.37,0.18,10.06
-0.85,-1.65,2.98,-0.84,0.22,10.65
-1.79,-2.17,2.74,-0.91,-0.19,10.38
-1.36,-2.57,2.69,-0.82,-0.28,10.22
-0.95,-2.85,2.75,-0.68,-0.11,10.19
-1.06,-2.65,2.55,-0.50,0.14,10.34
-1.73,-2.11,2.46,-0.60,0.39,10.24
-3.34,-1.80,2.07,-0.70,-0.22,10.01
-2.76,-1.87,1.97,-0.72,-0.54,9.65
-1.66,-1.84,1.89,-0.66,-0.57,9.37
-1.26,-1.65,1.69,-0.47,0.10,9.49
-2.11,-1.72,1.46,-0.64,-0.03,9.25
-1.98,-1.82,1.35,-0.77,-0.33,8.87
-0.71,-1.71,1.34,-0.36,-0.60,8.95
0.63,-0.61,1.10,-0.10,0.13,9.46
0.06,-0.02,0.92,-0.39,0.32,9.76
-1.05,-0.40,0.71,-0.49,0.23,9.74
-1.42,-0.99,0.65,-0.33,-0.09,9.98
-1.41,-1.25,0.56,-0.07,-0.33,9.94
-0.16,-0.78,0.58,-0.12,-0.06,9.64
-0.50,-1.06,0.42,-0.25,0.16,9.36
-1.05,-1.27,0.31,-0.04,0.22,9.55
-1.30,-1.30,0.17,-0.28,-0.44,9.17
-0.15,-1.62,0.30,-0.06,-0.44,9.32
0.45,-1.79,0.29,0.03,-0.24,9.37
0.62,-1.75,0.30,-0.07,0.01,8.93
0.09,-1.02,0.19,0.08,-0.27,8.76
0.57,-0.77,0.10,-0.13,-0.48,8.42
1.54,-0.44,0.15,0.28,-0.51,9.13
2.00,0.17,0.21,0.59,-0.18,10.00
1.70,0.70,0.19,0.08,0.10,10.70
0.53,-0.39,0.15,-0.52,-0.20,11.16
0.80,-1.34,0.14,-0.26,-0.53,10.99
1.59,-1.65,0.06,0.01,-0.43,10.34
1.82,-1.20,0.22,0.08,0.31,9.62
0.55,-1.20,0.12,0.08,0.25,9.14
0.31,-1.24,0.17,0.43,-0.13,9.06
0.62,-0.67,0.40,0.99,-0.28,9.60
1.34,0.90,0.50,-0.28,-0.14,9.23
1.39,0.82,0.41,0.03,-0.16,9.82
1.52,0.63,0.28,0.01,0.00,10.05
1.05,0.34,0.34,-0.26,-0.00,9.93
0.80,0.16,0.35,0.29,-0.28,10.31
1.99,-0.29,0.44,-0.22,-0.40,9.32
2.32,0.08,0.44,0.15,-0.20,9.70
2.05,0.78,0.35,0.10,0.17,9.99
0.87,0.96,0.22,0.20,0.15,10.66
0.72,0.85,0.29,-0.04,-0.07,10.74
0.67,0.60,0.36,0.01,-0.29,10.81
0.88,0.54,0.36,0.09,-0.23,11.02
0.76,0.81,0.30,-0.16,0.26,10.69
-0.24,0.62,0.26,0.16,0.22,10.83
-1.23,0.71,0.17,0.34,0.10,10.90
-1.22,0.65,0.26,-0.28,-0.06,10.54
-1.25,-0.32,0.34,-0.56,-0.39,10.08
-0.36,-1.86,0.30,0.12,-0.27,10.02
-0.00,-1.77,0.48,-0.14,-0.00,9.54
-0.18,-1.79,0.56,-0.17,0.14,9.24
-1.06,-1.02,0.39,0.31,-0.02,8.99
-1.07,-0.03,0.46,0.30,-0.34,8.67
-0.53,0.60,0.51,-0.01,-0.50,8.53
0.23,0.73,0.47,-0.10,-0.42,8.66
0.48,1.31,0.54,0.40,0.15,9.92
-0.42,2.00,0.61,0.15,0.10,10.39
-0.98,1.86,0.41,-0.51,-0.21,10.11
-0.48,1.09,0.43,-0.57,-0.56,10.11
0.21,0.60,0.46,-0.04,-0.62,10.26
0.56,0.63,0.43,0.32,0.14,10.11
-0.43,0.74,0.41,0.45,0.16,9.99
-1.18,0.79,0.43,0.12,0.01,9.62
-0.58,1.16,0.42,-0.05,-0.62,10.01
-0.16,0.66,0.50,-0.28,-0.36,10.32
-0.31,0.14,0.48,-0.29,-0.01,10.80
-0.93,-0.58,0.37,-0.54,0.17,10.55
-1.65,-2.00,0.41,-0.11,-0.56,10.01
-0.74,-2.10,0.52,0.02,-0.71,9.51
-0.04,-1.78,0.54,-0.18,-0.58,9.01
0.26,-1.14,0.47,-0.16,-0.18,8.73
-0.15,-0.58,0.52,0.08,0.11,8.74
-1.10,0.94,0.36,0.16,-0.30,8.68
-0.75,1.46,0.45,-0.02,-0.59,8.74
-0.03,1.63,0.38,-0.11,-0.63,9.11
0.40,0.97,0.40,-0.42,-0.14,9.96
0.02,0.49,0.30,-0.38,-0.22,10.11
-0.01,-0.21,0.31,-0.49,-0.50,9.92
0.42,-0.70,0.31,-0.13,-0.71,10.01
1.11,-0.44,0.31,-0.03,-0.02,10.28
0.34,-0.70,0.33,-0.42,0.22,10.19
-0.60,-1.26,0.32,-0.16,0.09,10.55
-1.16,-1.40,0.33,0.13,-0.30,10.79
-0.92,-1.03,0.33,0.17,-0.59,10.60
0.10,-0.93,0.45,-0.41,-0.15,9.98
-0.32,-1.24,0.34,-0.26,0.05,9.61
-0.83,-0.98,0.39,0.30,-0.14,9.66
-1.31,-0.13,0.38,0.51,-0.48,9.38
-0.15,0.53,0.36,-0.28,-0.60,8.89
0.54,0.06,0.34,-0.35,-0.11,9.32
0.10,-0.39,0.37,-0.33,0.29,9.96
-2.57,-0.89,0.44,0.11,-0.77,9.74
-1.19,-0.77,0.67,-0.19,-1.11,8.70
0.49,-0.59,0.65,0.16,-1.11,8.56
2.54,0.31,0.51,0.38,-0.50,8.89
1.78,1.31,0.31,0.20,0.43,10.28
-0.28,1.12,0.31,-0.38,0.45,10.85
-1.60,0.19,0.32,-0.40,-0.08,11.10
-1.12,-0.72,0.46,0.03,-0.65,11.34
0.01,-1.17,0.65,-0.35,-0.65,10.78
0.07,-1.74,0.47,-0.08,0.15,10.04
-1.03,-1.50,0.28,0.23,0.11,9.75
-1.82,-0.66,0.22,0.44,-0.24,9.49
-1.40,0.23,0.36,-0.21,-0.67,8.97
-0.69,-0.05,0.39,-0.17,-0.62,9.29
-0.16,0.14,0.38,0.08,-0.53,9.81
0.13,0.34,0.32,-0.23,-0.34,9.53
0.05,0.12,0.31,-0.42,-0.26,9.45
0.17,-0.65,-0.00,-0.50,-0.58,8.76
1.08,-0.92,0.02,-0.38,-0.69,8.51
1.61,-1.04,0.02,0.50,-0.64,8.82
1.80,-0.48,0.13,0.92,-0.38,9.53
1.67,1.44,0.11,-0.18,-0.02,10.19
1.49,1.32,-0.02,-0.20,0.00,11.31
1.32,0.84,-0.05,-0.35,-0.14,11.99
0.10,-2.00,0.27,-0.38,-0.64,10.85
1.09,-3.02,0.22,0.06,-0.79,9.75
2.34,-3.23,0.25,0.26,-0.38,8.76
3.03,-2.40,0.33,0.02,0.34,8.67
-2.06,-1.12,0.02,0.49,0.48,9.96
-3.07,-0.75,0.16,0.10,-0.26,9.91
-3.01,-0.87,0.60,0.43,-1.16,9.86
-1.82,-0.67,0.83,0.24,-1.55,9.48
1.64,-0.09,0.83,-0.33,-1.29,8.46
4.70,2.57,0.26,0.63,-0.18,8.83
3.51,3.67,0.03,0.15,0.29,8.61
1.42,4.00,0.13,0.75,0.29,9.60
0.44,3.86,0.47,0.17,-0.63,10.61
1.86,3.61,0.75,-0.32,-0.89,11.18
2.65,2.74,0.75,-0.54,-0.61,11.15
2.76,1.78,0.43,-0.40,-0.05,11.10
1.03,1.58,0.26,0.55,0.15,10.96
-0.07,1.57,0.22,0.42,-0.01,10.56
-0.25,1.50,0.43,0.05,-0.33,10.08
0.35,1.44,0.62,0.22,-0.45,10.40
0.49,1.38,0.70,-0.09,-0.22,10.79
-0.18,-1.04,0.59,-0.79,-0.21,9.96
0.11,-1.67,0.35,-0.92,-0.38,9.45
0.18,-2.09,0.27,-0.42,-0.45,8.52
0.50,-1.25,0.66,0.85,-0.74,8.92
0.92,0.21,0.63,0.44,-0.28,8.99
1.01,1.91,0.99,0.64,0.03,10.20
0.31,3.12,1.02,0.23,-0.15,11.63
-1.24,3.32,0.67,-1.04,0.41,12.18
-3.00,1.51,0.64,-0.99,-0.07,11.88
-2.98,-0.00,0.51,-0.85,-0.39,10.16
-2.13,-1.27,0.80,0.19,-0.76,9.21
-1.45,-1.21,0.82,0.89,-0.76,8.78
-1.16,1.65,0.71,0.23,0.30,8.35
-2.31,2.87,0.65,0.41,0.37,9.99
-3.90,3.18,0.40,-0.47,0.20,10.55
-3.58,-0.30,0.78,-0.69,-0.89,11.07
-2.90,-2.11,0.67,-0.85,-0.99,9.81
-1.71,-2.81,0.78,-0.62,-0.84,8.66
-0.86,-2.41,0.74,0.30,-0.77,8.52
-0.86,-0.36,0.53,0.05,0.24,8.02
-1.83,0.54,0.56,0.59,0.29,9.10
-2.80,1.43,0.58,0.15,0.08,9.63
-3.11,1.52,0.70,-0.67,-0.37,9.86
-2.32,0.71,0.66,-1.09,-0.90,10.31
-0.26,-1.54,0.42,-0.50,-0.75,10.01
0.30,-1.93,0.55,0.22,-0.51,9.46
0.66,-1.41,0.70,0.44,-0.41,8.73
0.57,1.03,0.54,0.57,-0.10,8.27
0.25,2.09,0.52,0.10,0.01,8.74
-0.46,2.20,0.45,-0.32,-0.00,9.44
-0.91,1.47,0.43,-0.11,-0.47,10.55
0.79,-0.84,0.61,-0.90,-1.15,10.27
2.66,-2.18,0.65,-0.91,-0.75,9.66
3.21,-3.07,0.50,-0.39,-0.17,9.40
2.47,-2.79,0.29,0.29,0.37,9.05
-0.13,-0.30,0.45,0.40,0.01,8.81
-0.54,0.51,0.38,0.13,-0.47,8.92
0.20,0.64,0.44,-0.25,-0.73,9.26
1.06,0.44,0.46,-0.51,-0.69,9.98
0.99,-0.74,0.25,-0.65,-0.03,10.25
0.51,-1.37,0.24,-0.22,-0.20,10.03
0.41,-1.34,0.24,0.05,-0.60,9.39
0.96,-0.79,0.22,0.39,-0.81,8.98
2.07,0.91,0.29,0.17,-0.03,9.74
1.25,1.48,0.23,0.24,0.29,10.83
-0.41,1.50,0.30,0.16,0.12,11.69
-1.58,1.08,0.31,-0.37,-0.39,11.76
-1.58,0.31,0.26,-0.44,-1.01,11.56
0.22,-0.61,0.33,-0.03,-1.02,10.48
0.81,-0.57,0.37,0.36,-0.34,10.26
-0.02,-0.17,0.41,0.55,0.31,10.22
-2.93,0.37,0.43,-0.05,-0.31,9.25
-2.72,0.78,0.41,0.63,-0.96,9.47
-1.35,1.26,0.34,-0.06,-0.91,8.97
-0.11,1.17,0.46,-0.48,-0.67,8.88
0.56,0.26,0.35,-0.09,-0.26,9.10
0.31,0.24,0.38,-0.15,-0.45,8.69
0.64,0.61,0.35,0.40,-0.74,8.81
1.61,1.33,0.40,0.46,-0.74,8.99
1.49,2.45,0.49,0.08,-0.28,9.70
0.98,2.67,0.45,-0.09,-0.43,10.20
0.54,2.48,0.37,-0.14,-0.78,10.78
0.78,2.09,0.36,-0.12,-0.94,11.26
1.51,1.36,0.36,-0.48,-0.64,11.25
0.92,-1.16,0.44,-0.39,0.27,10.57
-0.52,-1.44,0.48,0.11,0.01,10.05
-1.23,-0.82,0.51,0.56,-0.63,9.52
0.47,1.06,0.51,-0.01,-0.61,9.11
0.48,1.25,0.50,-0.04,0.07,9.84
-0.56,0.92,0.48,-0.43,0.25,9.98
-1.77,0.21,0.45,-0.50,-0.36,9.80
-0.83,0.30,0.51,0.16,-1.56,8.89
0.70,1.12,0.49,0.09,-1.46,8.60
1.96,1.96,0.49,-0.05,-0.82,8.80
1.74,2.11,0.34,-0.29,-0.14,9.38
-0.62,1.39,0.28,-0.29,-0.37,10.78
-0.91,0.38,0.26,-0.77,-0.87,10.52
0.54,-0.83,0.31,-0.64,-0.99,10.39
1.82,-1.62,0.41,-0.20,-0.52,10.46
0.10,-0.92,0.33,0.25,0.13,10.41
-1.63,0.04,0.25,0.32,0.05,10.64
-2.63,0.45,0.25,-0.26,-0.21,10.61
-2.89,0.06,0.30,-0.54,-0.65,10.99
-2.67,-0.91,0.32,-0.69,-0.98,10.82
-1.67,-2.34,0.42,-0.00,-0.90,10.14
-2.03,-1.77,0.36,0.08,-0.86,9.47
-2.29,-1.23,0.26,-0.29,-0.85,8.62
-1.86,-0.88,0.28,-0.05,-0.89,8.50
-0.43,0.16,0.28,0.19,-0.69,8.75
-0.19,0.73,0.31,0.07,-0.58,9.04
-0.36,0.70,0.34,-0.10,-0.61,9.25
0.28,0.21,0.33,-0.10,-0.89,9.60
0.60,0.37,0.37,0.18,-0.92,9.77
1.04,0.58,0.35,-0.18,-0.79,9.51
0.89,0.42,0.36,-0.26,-0.64,9.72
-0.04,0.07,0.20,-0.00,-0.73,10.70
-0.29,-0.48,0.33,-0.26,-0.95,10.66
-0.02,-1.35,0.31,-0.71,-1.01,10.23
0.51,-2.20,0.25,-0.45,-0.80,9.95
-0.57,-1.60,0.22,0.35,-0.30,9.80
-1.11,-0.88,0.31,-0.03,-0.31,9.01
-1.38,-0.75,0.36,-0.03,-0.62,8.73
-1.23,-0.41,0.22,0.14,-0.79,8.65
-1.06,0.99,0.28,0.33,-0.91,9.07
-0.78,1.21,0.23,-0.33,-0.91,9.07
-0.87,0.46,0.23,-0.67,-1.03,8.98
-0.52,0.05,0.16,-0.06,-1.19,9.61
-0.11,0.58,0.24,0.04,-1.00,10.32
0.24,0.66,0.16,-0.33,-0.92,10.52
0.28,-0.05,0.17,-0.36,-0.84,10.71
0.11,-0.62,0.14,-0.26,-0.64,10.84
-0.18,-0.85,0.18,-0.09,-0.55,10.80
-0.74,-0.95,0.21,-0.01,-0.79,10.47
-0.70,-0.86,0.24,-0.11,-0.75,10.52
-0.65,-0.87,0.26,-0.23,-0.61,10.69
-1.72,-1.85,0.15,-0.35,-0.62,10.59
-1.84,-2.45,0.18,-0.46,-0.98,10.03
-1.51,-2.78,0.26,-0.11,-1.28,9.76
-0.85,-2.67,0.27,0.09,-1.28,9.38
0.35,-2.14,0.41,-0.01,-0.77,8.50
-0.10,-1.68,0.32,0.12,-0.70,8.25
-0.25,-0.97,0.26,0.37,-0.89,8.08
0.38,0.03,0.34,0.42,-1.06,8.13
1.15,0.91,0.40,0.19,-0.94,8.13
1.09,1.47,0.35,0.06,-0.55,9.21
0.72,1.59,0.35,0.15,-0.61,9.80
0.44,1.41,0.30,0.10,-0.74,10.23
0.71,0.28,0.36,-0.38,-0.92,10.53
0.55,-0.17,0.35,0.11,-0.76,10.80
0.25,-0.36,0.39,0.13,-0.62,10.52
-0.15,-0.41,0.39,-0.00,-0.67,10.25
-0.86,-0.51,0.35,0.17,-0.91,10.22
-0.60,-0.51,0.36,-0.06,-1.00,10.17
-0.11,-0.64,0.36,-0.13,-0.82,10.15
-0.12,-0.95,0.38,-0.12,-0.61,10.22
-0.80,-1.19,0.40,-0.06,-0.63,10.26
-0.96,-0.87,0.47,-0.11,-1.12,9.74
-0.08,-0.92,0.39,-0.31,-1.19,9.38
0.52,-1.02,0.33,-0.16,-0.97,9.47
-0.06,-0.63,0.22,-0.27,-0.82,9.28
0.13,-0.69,0.23,-0.23,-0.97,9.24
0.53,-0.69,0.25,-0.07,-1.04,9.64
0.48,-0.69,0.21,-0.25,-0.94,9.56
1.12,-0.73,0.31,-0.01,-0.84,9.61
1.06,-0.50,0.22,0.00,-0.76,9.37
0.98,0.12,0.24,0.24,-0.67,9.41
0.92,0.72,0.25,0.32,-0.71,9.50
0.98,0.87,0.19,-0.03,-0.69,9.26
0.80,0.85,0.24,0.30,-0.74,10.04
0.57,1.01,0.22,0.23,-0.81,10.17
0.72,0.87,0.31,-0.20,-0.92,10.13
0.90,-0.04,0.22,0.12,-0.70,10.42
0.30,0.05,0.27,0.35,-0.59,10.63
-0.40,0.38,0.25,0.16,-0.65,10.42
-0.43,0.26,0.41,-0.06,-0.81,10.25
-0.46,-0.00,0.32,0.21,-0.75,10.33
-0.57,0.33,0.46,0.05,-0.84,9.90
-0.62,0.61,0.43,0.00,-0.94,9.71
-0.47,0.73,0.39,0.03,-0.95,9.52
0.03,1.07,0.36,0.33,-0.90,9.71
-0.35,1.87,0.43,-0.31,-0.77,9.74
-0.42,1.00,0.31,-0.77,-0.98,9.49
0.08,-0.09,0.26,-0.40,-1.16,9.73
0.58,-0.77,0.35,0.06,-0.85,9.78
0.36,-0.62,0.36,-0.14,-0.69,9.49
0.22,-0.84,0.27,-0.33,-0.66,9.20
0.21,-0.84,0.33,-0.06,-0.75,9.46
0.26,-0.04,0.17,-0.03,-0.72,9.87
0.25,-0.08,0.22,-0.08,-0.63,10.12
-0.04,-0.59,0.22,-0.35,-0.63,9.99
-0.32,-0.93,0.35,-0.23,-0.77,9.91
0.11,-0.53,0.37,0.30,-0.91,10.14
0.01,0.61,0.37,-0.05,-0.75,9.61
-0.27,0.86,0.34,-0.06,-0.88,9.65
-0.38,0.93,0.28,0.08,-1.08,9.74
0.68,1.25,0.37,0.15,-1.13,9.69
0.81,1.28,0.40,0.23,-1.03,9.56
0.75,1.34,0.41,-0.10,-0.89,9.35
0.77,1.42,0.27,-0.20,-0.80,9.34
0.99,1.47,0.22,0.20,-0.81,10.08
0.83,1.20,0.27,-0.17,-0.67,10.14
0.69,0.48,0.28,-0.61,-0.77,10.03
0.92,-0.61,0.23,-0.48,-0.93,9.90
1.12,-1.08,0.22,0.13,-0.94,10.26
0.96,-0.67,0.28,-0.32,-0.67,9.65
0.47,-0.81,0.24,-0.15,-0.77,9.86
0.31,-0.80,0.15,0.12,-0.77,10.04
0.10,-0.17,0.22,0.01,-0.73,10.09
-0.16,-0.31,0.28,-0.26,-0.76,9.88
-0.34,-0.62,0.22,-0.41,-0.81,9.57
-0.22,-0.44,0.18,0.37,-0.72,9.90
-0.82,0.80,0.31,-0.24,-0.56,9.40
-0.99,0.74,0.28,-0.30,-0.55,9.39
-1.23,0.72,0.28,0.23,-0.67,9.92
-1.69,1.17,0.23,0.16,-0.93,9.95
-0.87,1.06,0.28,-0.14,-1.22,9.58
-0.31,0.73,0.21,-0.07,-0.94,9.67
-0.57,0.57,0.23,-0.00,-0.69,9.68
-0.97,0.59,0.27,0.02,-0.76,9.70
-0.76,0.31,0.20,0.06,-1.13,9.81
-0.05,0.49,0.34,0.16,-1.11,10.04
0.26,0.50,0.36,-0.07,-0.92,10.15
0.14,0.18,0.32,-0.19,-0.74,10.15
-0.12,-0.03,0.26,0.05,-0.91,10.06
0.37,0.35,0.30,0.23,-1.08,10.00
0.72,0.81,0.32,0.45,-1.08,10.17
0.79,1.31,0.39,0.19,-0.97,10.12
0.41,1.72,0.38,0.10,-0.95,10.21
0.23,1.59,0.32,-0.29,-1.12,9.97
0.43,1.29,0.39,0.04,-1.16,9.94
0.48,1.31,0.44,0.21,-0.99,9.99
-0.07,1.37,0.43,-0.10,-0.85,9.54
-0.80,1.24,0.50,0.02,-1.01,9.41
-1.08,1.42,0.47,-0.15,-1.04,9.15
-1.15,1.56,0.41,-0.08,-1.03,9.19
-1.51,1.55,0.36,-0.01,-0.87,9.21
-1.99,1.57,0.41,0.26,-0.90,9.32
-2.45,1.93,0.47,-0.01,-1.10,9.18
-2.62,2.34,0.42,-0.18,-1.29,9.14
-2.12,2.08,0.33,-0.19,-1.36,9.57
-2.00,1.67,0.31,-0.35,-1.24,9.49
-1.76,1.33,0.28,-0.43,-1.22,9.43
-1.75,1.09,0.18,-0.05,-1.18,9.70
-1.86,1.17,0.22,0.36,-1.15,9.99
-2.13,1.91,0.32,-0.05,-1.41,10.51
-1.74,1.74,0.28,-0.33,-1.32,10.78
-1.70,1.29,0.21,-0.39,-1.09,11.27
-3.21,0.54,0.15,-0.06,-1.26,11.19
-3.34,0.51,0.23,-0.03,-1.71,10.78
-2.88,0.57,0.17,-0.08,-1.89,10.41
-2.15,0.46,0.23,-0.42,-1.61,10.06
-2.12,-0.39,0.08,-0.17,-1.19,9.73
-2.65,-0.43,0.07,-0.23,-1.27,9.00
-2.74,-0.15,-0.01,-0.35,-1.42,8.35
-2.62,-0.01,-0.14,-0.09,-1.46,8.11
-1.76,0.27,-0.15,-0.02,-1.61,8.04
-0.32,0.88,-0.19,-0.21,-1.86,8.42
0.67,0.81,-0.22,-0.45,-1.54,8.76
0.80,0.17,-0.20,-0.50,-1.10,8.99
-0.17,-0.73,-0.30,-0.34,-1.32,8.70
0.06,-0.63,-0.29,-0.06,-1.65,8.61
0.38,-0.19,-0.42,0.09,-1.66,8.70
0.91,0.37,-0.35,0.17,-1.26,9.07
-1.11,0.56,-0.36,-0.19,-0.88,10.48
-1.72,-0.25,-0.31,-0.54,-1.19,10.38
-1.59,-1.22,-0.19,-0.43,-1.75,10.34
-0.88,-1.57,-0.22,-0.15,-1.82,10.16
-0.52,-1.41,-0.15,0.09,-1.54,10.06
-1.34,-1.17,-0.21,-0.01,-0.95,9.59
-2.19,-1.12,-0.10,0.02,-1.08,9.88
-2.95,-0.90,-0.19,0.22,-1.37,10.06
-2.60,-1.06,-0.07,-0.51,-2.03,9.78
-1.83,-1.64,-0.18,-0.43,-1.85,9.59
-1.57,-1.84,-0.19,-0.18,-1.64,9.77
-1.81,-1.45,-0.36,0.11,-1.44,9.62
-2.08,-1.02,-0.21,0.16,-1.58,9.37
-1.97,-0.85,-0.30,-0.01,-1.75,9.27
-1.49,-0.55,-0.31,0.05,-1.88,9.37
-0.73,-0.12,-0.38,0.05,-1.85,9.71
-1.11,-0.64,-0.64,-0.47,-1.65,9.70
-0.70,-1.25,-0.71,-0.24,-1.78,9.56
-0.35,-1.52,-0.63,0.19,-1.96,9.60
0.05,-1.06,-0.79,0.07,-1.93,9.31
0.25,-0.94,-0.73,0.13,-1.91,9.58
0.51,-0.97,-0.83,-0.19,-1.87,9.43
0.54,-1.13,-0.76,0.22,-1.87,9.88
0.42,-0.93,-0.81,0.29,-1.72,10.30
-0.36,-1.21,-0.73,-0.09,-2.12,9.84
0.03,-1.26,-0.78,0.14,-2.26,9.75
0.74,-1.07,-0.65,0.17,-2.20,9.57
1.20,-0.90,-0.64,0.04,-2.08,9.46
1.12,-1.00,-0.64,-0.06,-1.91,9.41
0.99,-1.55,-0.83,0.02,-2.15,8.89
1.25,-1.36,-0.75,0.16,-2.34,8.82
1.78,-1.14,-0.76,-0.01,-2.38,8.54
3.44,-1.08,-0.78,0.15,-2.21,9.02
3.55,-0.75,-0.82,0.38,-2.02,9.56
3.35,-0.33,-0.76,0.28,-1.78,10.06
2.85,-0.32,-0.67,-0.11,-1.79,10.37
2.42,-1.05,-0.72,0.06,-2.11,10.60
2.42,-0.90,-0.72,0.35,-2.21,10.52
2.61,-0.32,-0.66,0.36,-2.03,10.46
2.37,-0.01,-0.62,0.33,-1.90,10.62
1.40,0.06,-0.72,0.26,-1.93,10.89
0.93,-0.06,-0.67,0.19,-2.39,10.98
1.15,-0.23,-0.66,0.28,-2.29,11.07
1.18,-0.37,-0.59,0.21,-1.93,10.89
-0.42,-0.83,-0.54,0.19,-2.04,10.21
-0.30,-0.93,-0.48,0.15,-2.43,9.82
0.27,-0.68,-0.48,0.14,-2.55,9.57
0.82,-0.40,-0.55,0.12,-2.24,9.46
-0.29,-0.34,-0.55,0.31,-2.04,9.61
-0.96,-0.23,-0.54,0.26,-2.44,9.49
-0.62,0.04,-0.51,-0.01,-2.86,9.28
0.38,0.27,-0.55,0.05,-2.98,9.49
1.26,0.55,-0.60,0.14,-2.69,9.67
0.72,0.80,-0.68,0.07,-2.14,9.96
0.03,0.72,-0.71,0.24,-2.35,10.10
-0.30,0.62,-0.64,0.26,-2.66,10.18
0.45,0.67,-0.55,0.13,-2.96,10.04
1.25,0.79,-0.55,0.16,-2.75,9.96
1.12,0.86,-0.57,0.20,-2.42,10.01
0.57,0.80,-0.55,0.04,-2.28,10.06
-0.37,0.18,-0.59,0.11,-2.86,10.04
-0.08,-0.05,-0.53,0.12,-3.11,9.88
0.37,0.10,-0.52,0.27,-2.95,10.10
0.46,0.19,-0.48,0.09,-2.63,10.19
-0.12,-0.13,-0.48,-0.01,-2.46,10.22
-1.33,-0.26,-0.50,0.01,-2.56,10.32
-1.83,-0.39,-0.54,-0.07,-2.84,10.00
-1.45,-0.31,-0.49,0.07,-3.01,9.91
-0.96,0.10,-0.53,0.03,-2.46,9.69
-1.65,0.24,-0.57,-0.12,-2.36,9.60
-2.25,0.09,-0.68,-0.11,-2.61,9.41
-2.31,-0.07,-0.67,0.00,-2.96,9.28
-1.34,0.10,-0.82,-0.10,-3.04,8.84
-1.01,0.14,-0.83,0.18,-3.08,8.99
-0.77,0.54,-0.88,0.20,-3.09,9.02
-0.48,1.01,-0.92,0.24,-3.04,9.31
-0.36,1.28,-0.93,0.10,-2.83,10.07
-0.55,0.93,-0.90,0.17,-2.75,10.27
-0.80,0.89,-0.90,0.20,-2.77,10.20
-1.06,0.99,-0.90,0.19,-2.95,9.83
-0.78,1.03,-0.90,0.20,-3.12,9.49
0.14,1.52,-0.87,0.37,-2.85,9.76
-0.19,1.60,-0.84,0.20,-2.64,10.01
-0.68,1.29,-0.84,0.01,-2.62,10.27
-1.52,-0.09,-0.87,-0.02,-3.00,10.23
-1.36,-0.34,-0.87,0.17,-3.09,10.07
-1.15,-0.45,-0.79,0.17,-2.95,9.74
-1.32,-0.48,-0.73,0.15,-2.86,9.62
-1.78,-0.59,-0.71,0.04,-2.88,9.63
-1.86,-0.55,-0.71,-0.12,-2.98,9.47
-1.75,-0.61,-0.67,-0.09,-3.08,9.23
-1.43,-0.54,-0.65,0.01,-3.15,9.18
-0.97,-0.31,-0.66,-0.00,-3.10,9.08
-0.78,0.06,-0.55,0.20,-3.05,9.06
-0.52,0.43,-0.54,0.08,-3.12,8.89
-0.17,0.80,-0.65,-0.09,-3.13,8.83
0.33,1.00,-0.82,-0.13,-3.11,9.05
0.35,0.85,-0.88,-0.09,-3.15,9.42
0.45,0.80,-0.90,0.02,-3.25,9.65
0.70,0.51,-0.89,0.23,-3.28,9.81
1.38,0.13,-0.79,-0.19,-2.82,9.88
0.88,-0.15,-0.88,-0.13,-2.64,10.20
-0.01,-0.43,-0.93,-0.11,-2.75,10.42
-0.64,-0.74,-0.99,0.04,-3.09,10.27
-0.31,-0.88,-0.92,0.14,-3.34,9.90
0.68,-0.42,-0.76,0.40,-3.02,9.73
0.84,0.28,-0.66,0.19,-2.63,10.02
-0.26,0.59,-0.67,0.17,-2.62,10.38
-1.31,0.35,-0.72,-0.07,-3.39,9.97
-0.66,0.38,-0.72,0.32,-3.52,9.85
-0.09,0.60,-0.69,0.44,-3.21,9.82
0.14,1.00,-0.59,0.19,-2.86,9.68
-0.75,0.30,-0.64,-0.30,-3.14,9.47
-0.46,-0.24,-0.71,-0.17,-3.36,9.32
-0.18,-0.88,-0.73,0.09,-3.33,9.18
0.59,-0.96,-0.55,0.14,-3.22,9.07
0.33,-0.44,-0.60,-0.05,-2.98,9.30
-0.04,-0.56,-0.62,-0.37,-3.14,9.27
-0.02,-1.08,-0.64,-0.26,-3.34,9.40
0.61,-1.32,-0.61,0.01,-3.32,9.26
0.92,-0.59,-0.57,0.34,-2.89,9.09
0.77,0.29,-0.59,0.13,-2.81,9.29
0.03,0.65,-0.61,-0.12,-3.02,9.45
-0.30,0.84,-0.66,-0.16,-3.33,9.80
0.56,0.80,-0.67,0.14,-3.26,10.06
0.73,0.87,-0.65,0.24,-2.90,9.95
-0.06,1.16,-0.63,0.42,-2.72,9.96
-1.01,1.55,-0.64,0.29,-3.08,10.02
-1.14,1.67,-0.62,0.10,-3.60,10.18
0.44,1.12,-0.68,0.04,-3.45,10.67
0.35,0.69,-0.70,0.06,-2.85,10.69
-0.68,0.27,-0.69,-0.08,-2.62,10.53
-1.81,-0.58,-0.78,0.01,-3.56,10.05
-0.94,-0.81,-0.70,-0.09,-3.72,9.73
-0.16,-1.02,-0.62,0.01,-3.47,9.55
0.24,-0.93,-0.66,0.15,-2.99,9.85
-1.71,-0.96,-0.86,-0.48,-2.83,10.04
-2.17,-1.58,-0.89,-0.57,-3.30,10.00
-1.97,-2.28,-0.82,-0.34,-3.58,9.78
-1.79,-2.70,-0.79,0.03,-3.47,9.54
-1.53,-2.33,-0.67,0.35,-3.33,9.39
-1.28,-1.10,-0.58,-0.17,-3.31,9.06
-1.24,-0.73,-0.62,-0.30,-3.50,9.33
-1.08,-0.83,-0.68,-0.20,-3.74,9.55
0.05,-0.61,-0.53,0.16,-3.46,9.86
-0.13,-0.44,-0.56,-0.09,-3.27,9.69
-0.19,-0.58,-0.58,-0.37,-3.29,9.50
0.00,-1.15,-0.51,-0.27,-3.40,9.46
0.54,-1.61,-0.60,-0.07,-3.56,9.06
0.83,-1.64,-0.67,0.17,-3.58,8.98
1.29,-1.57,-0.70,0.07,-3.54,9.03
1.63,-1.62,-0.71,-0.31,-3.46,8.99
1.72,-1.85,-0.76,-0.19,-3.48,9.44
1.81,-2.02,-0.70,0.10,-3.70,9.67
2.22,-1.76,-0.72,0.16,-3.73,9.34
2.84,-1.21,-0.73,0.54,-3.52,9.30
2.23,0.71,-0.66,0.38,-3.39,9.82
2.26,1.15,-0.67,0.24,-3.58,9.93
2.72,1.35,-0.63,0.27,-3.56,10.15
2.84,1.48,-0.66,0.47,-3.28,10.16
1.29,2.25,-0.54,0.62,-2.54,10.35
-0.06,2.47,-0.57,0.37,-2.68,10.46
-1.17,2.26,-0.57,0.13,-2.94,10.54
-1.85,1.72,-0.49,0.15,-3.42,10.70
-2.51,0.83,-0.54,-0.08,-3.89,10.28
-1.08,-0.59,-0.44,0.51,-3.51,9.59
-0.91,-0.57,-0.43,0.31,-3.13,9.26
-0.97,-0.58,-0.33,-0.01,-3.00,9.24
-2.17,-1.72,-0.45,-0.59,-3.52,9.78
-2.29,-2.67,-0.44,-0.59,-3.71,9.73
-1.79,-3.25,-0.40,-0.27,-3.71,9.59
-0.94,-3.43,-0.41,-0.11,-3.30,9.13
-0.43,-2.70,-0.24,-0.01,-2.64,8.63
-1.40,-2.22,-0.24,-0.12,-2.78,8.51
-1.89,-1.56,-0.23,-0.23,-3.25,8.54
-1.71,-1.08,-0.23,-0.14,-3.75,8.80
0.64,-0.07,-0.29,0.09,-3.41,9.52
0.91,0.56,-0.32,-0.02,-2.74,9.72
-0.22,1.04,-0.40,-0.13,-2.39,10.09
-1.82,1.17,-0.48,-0.29,-2.67,10.27
-3.62,0.00,-0.54,-0.04,-3.68,10.82
-2.87,-0.17,-0.54,-0.06,-3.66,10.52
-1.80,-0.08,-0.50,0.07,-3.17,10.06
-1.69,0.23,-0.62,0.36,-2.50,10.08
-4.38,0.29,-0.77,-0.11,-2.84,10.16
-4.97,-0.44,-0.81,-0.01,-3.55,10.53
-4.03,-1.13,-0.72,-0.13,-3.90,10.22
-2.55,-1.37,-0.70,0.05,-3.68,9.83
-2.49,-0.47,-0.90,0.10,-2.66,10.13
-3.67,-0.79,-1.05,-0.28,-3.08,10.29
-3.95,-1.78,-1.01,-0.35,-3.77,10.42
-3.03,-2.77,-0.90,-0.20,-3.95,10.13
-1.77,-2.53,-0.68,0.60,-3.06,9.80
-2.15,-1.64,-0.65,0.37,-2.98,9.62
-2.37,-1.19,-0.67,0.14,-3.09,9.81
-1.78,-0.92,-0.59,0.05,-3.18,10.03
-1.62,-0.29,-0.25,0.96,-2.68,10.06
-2.07,0.86,0.03,0.86,-2.64,9.73
-2.86,1.88,0.04,0.54,-3.00,9.60
-2.87,2.54,-0.00,0.32,-3.43,9.76
-1.58,2.53,-0.12,0.11,-3.35,9.82
-1.40,2.03,-0.03,0.38,-3.02,9.42
-1.81,1.54,0.10,0.63,-2.95,9.07
-2.21,1.41,0.16,0.57,-3.10,8.75
-2.12,1.39,0.17,0.03,-3.38,8.33
0.06,0.90,-0.30,-0.12,-3.46,7.93
1.25,0.05,-0.42,-0.19,-3.18,7.69
1.87,-0.85,-0.32,-0.12,-2.89,7.96
0.78,-1.88,-0.31,-0.27,-2.50,9.75
-0.10,-1.89,-0.48,-0.50,-2.65,10.55
-0.34,-2.35,-0.57,-0.96,-3.19,10.71
0.05,-3.35,-0.69,-0.96,-3.51,10.56
0.27,-3.90,-0.51,0.07,-2.70,9.75
-0.66,-3.02,-0.46,0.23,-2.66,9.43
-0.81,-1.65,-0.42,0.24,-2.97,8.98
-0.04,-0.48,-0.36,-0.01,-3.40,8.77
1.43,1.06,-0.41,0.09,-3.09,9.74
1.18,1.23,-0.39,-0.02,-2.81,9.70
1.11,1.25,-0.42,-0.02,-2.77,9.12
1.33,1.07,-0.37,-0.07,-2.87,8.59
1.99,0.51,-0.34,0.05,-2.78,9.47
1.46,-0.08,-0.35,-0.07,-2.88,9.89
1.11,-0.91,-0.38,-0.18,-3.23,9.71
1.82,-1.81,-0.41,-0.01,-3.47,9.21
3.95,-2.06,-0.28,0.40,-2.62,9.13
3.56,-1.76,-0.28,0.41,-2.13,9.56
2.48,-1.71,-0.23,0.03,-2.26,9.77
1.82,-2.11,-0.33,-0.02,-2.70,9.48
2.36,-2.28,-0.27,0.17,-2.87,9.07
3.23,-0.98,-0.24,0.70,-2.24,8.91
2.74,0.28,-0.19,0.59,-1.98,9.08
1.85,1.16,-0.22,0.43,-2.15,9.21
1.33,1.88,-0.26,0.14,-2.73,9.70
1.27,1.87,-0.36,0.40,-2.85,9.94
1.27,1.87,-0.34,0.40,-2.77,9.98
1.27,1.87,-0.22,0.33,-2.85,9.95
1.53,1.82,-0.19,0.25,-2.91,10.26
1.72,1.56,-0.28,0.16,-2.79,10.24
1.75,1.16,-0.36,0.14,-2.69,10.29
1.69,0.74,-0.37,0.19,-2.71,10.24
1.61,0.29,-0.41,0.23,-2.76,10.25
2.41,-0.28,-0.29,0.05,-2.69,10.16
2.46,-0.62,-0.27,0.10,-2.57,10.17
2.48,-0.51,-0.23,0.09,-2.48,10.24
2.33,-0.24,-0.36,-0.12,-2.39,10.35
2.23,-0.19,-0.40,-0.12,-2.44,10.36
1.78,-0.30,-0.39,-0.02,-2.51,10.20
1.76,-0.04,-0.29,0.11,-2.63,10.33
1.94,0.53,-0.08,0.02,-2.64,10.11
2.19,0.83,-0.09,-0.02,-2.34,9.98
1.59,1.18,-0.18,-0.02,-2.09,9.73
0.99,1.44,-0.20,-0.10,-2.22,9.44
0.88,1.53,-0.20,-0.10,-2.53,9.39
1.57,1.17,-0.00,0.09,-2.39,9.13
1.64,1.19,0.05,0.10,-2.18,9.06
1.30,1.38,-0.02,0.12,-2.04,9.08
0.66,1.35,-0.12,-0.23,-2.49,9.31
0.79,0.79,-0.19,-0.18,-2.68,9.56
1.33,0.30,-0.21,-0.09,-2.58,9.49
1.58,0.10,-0.10,0.35,-2.31,9.75
0.42,0.33,-0.03,-0.10,-2.10,10.07
-0.02,0.08,-0.11,-0.27,-2.39,10.26
0.10,-0.31,-0.16,-0.25,-2.57,10.30
0.48,-0.50,-0.13,0.04,-2.56,10.41
0.62,-0.41,-0.13,0.25,-2.31,10.29
0.08,0.15,-0.04,0.01,-2.04,10.12
-0.35,0.04,-0.08,-0.11,-2.27,10.32
-0.27,0.05,-0.10,-0.25,-2.48,10.33
-0.05,-0.08,-0.20,-0.19,-2.35,9.86
0.14,-0.09,-0.26,-0.11,-2.20,9.48
0.07,-0.08,-0.22,0.07,-2.20,9.46
-0.01,0.08,-0.21,-0.07,-2.31,9.50
0.33,-0.53,-0.17,-0.22,-2.40,9.75
0.34,-0.85,-0.31,-0.20,-2.37,9.47
0.46,-0.91,-0.29,0.22,-2.29,9.34
0.80,-0.59,-0.19,0.28,-2.19,9.58
0.30,-0.54,-0.09,-0.03,-1.98,10.13
-0.00,-0.81,-0.04,-0.11,-2.01,10.04
-0.23,-0.80,-0.05,0.20,-2.06,9.87
-0.15,-0.29,-0.04,0.42,-2.09,9.68
0.17,0.59,0.06,0.23,-2.00,9.61
0.06,0.65,0.08,0.38,-1.88,9.69
-0.32,1.05,0.12,0.63,-1.90,9.86
-0.53,1.60,0.18,0.30,-1.97,9.61
-0.11,1.62,0.04,0.11,-2.13,9.87
-0.07,1.56,-0.00,0.18,-1.92,9.80
-0.34,1.58,-0.02,0.19,-1.81,9.74
-0.72,1.60,-0.11,0.18,-1.88,9.72
-0.74,1.15,-0.22,-0.04,-1.97,9.73
-0.72,0.92,-0.25,-0.07,-1.91,9.71
-0.96,0.75,-0.35,0.02,-1.91,9.73
-1.23,0.72,-0.44,0.06,-1.99,9.81
-1.12,0.56,-0.53,-0.19,-2.10,9.74
-0.88,0.33,-0.56,-0.17,-2.00,9.59
-0.86,0.31,-0.58,0.08,-1.81,9.63
-1.02,0.49,-0.54,0.09,-1.71,9.80
-1.17,0.22,-0.54,-0.29,-2.03,9.64
-0.66,-0.05,-0.48,-0.19,-1.98,9.53
-0.37,0.01,-0.47,-0.12,-1.73,9.50
-0.58,0.13,-0.47,-0.03,-1.57,9.58
-0.85,0.09,-0.37,-0.04,-1.65,9.61
-0.50,-0.28,-0.16,-0.03,-1.97,9.32
0.06,-0.18,-0.07,0.12,-1.91,9.29
0.53,0.09,-0.00,0.01,-1.70,9.22
0.46,0.22,0.02,0.02,-1.64,9.61
0.36,0.18,0.11,0.01,-1.81,9.75
0.30,-0.07,0.21,0.02,-1.74,9.58
0.32,-0.08,0.25,0.27,-1.63,9.68
0.23,0.42,0.29,-0.17,-1.63,9.69
0.16,0.32,0.20,-0.23,-1.70,10.06
0.17,0.02,0.13,-0.21,-1.75,10.27
0.10,-0.25,0.14,-0.07,-1.80,10.39
-0.13,-0.32,0.17,0.16,-1.79,10.50
-0.95,-0.29,0.13,0.03,-1.66,10.45
-1.09,-0.19,0.05,-0.27,-1.70,10.52
-1.26,-0.34,-0.06,-0.39,-1.75,10.65
-1.73,-1.11,-0.20,-0.09,-1.92,10.71
-1.62,-1.17,-0.19,0.00,-1.99,10.35
-1.41,-1.14,-0.19,0.14,-1.97,10.04
-1.08,-0.96,-0.19,0.09,-1.88,9.85
-1.17,-0.51,-0.34,-0.11,-1.67,10.03
-1.28,-0.55,-0.36,-0.16,-1.76,10.00
-1.35,-0.61,-0.32,0.14,-1.89,9.96
-1.21,-0.52,-0.25,0.27,-2.01,9.63
-0.31,0.29,-0.20,0.31,-1.87,9.34
-0.43,0.59,-0.22,0.19,-1.71,9.31
-0.73,0.87,-0.22,0.17,-1.66,9.50
-1.03,0.93,-0.15,0.18,-1.79,9.61
-0.92,0.75,-0.08,0.07,-1.92,9.42
-0.58,0.76,-0.09,0.37,-1.83,9.24
-0.53,1.04,-0.08,0.17,-1.74,9.19
-0.72,1.02,-0.08,0.15,-1.74,9.46
-1.01,0.44,-0.04,0.07,-1.86,9.59
-1.00,0.20,0.03,0.28,-1.97,9.44
-0.80,0.21,0.07,0.42,-2.01,9.24
-0.55,0.42,0.08,0.30,-1.97,9.14
-0.30,0.75,0.06,0.06,-1.72,9.78
-0.70,0.55,0.04,-0.10,-1.68,9.92
-0.97,0.15,0.07,-0.11,-1.80,9.80
-0.91,-0.00,0.09,0.23,-1.97,9.80
-0.69,0.35,0.10,0.30,-1.98,9.63
-0.48,1.07,0.07,-0.13,-1.88,9.86
-0.51,0.99,0.02,-0.31,-1.76,10.09
-0.76,0.63,0.02,-0.31,-1.68,10.07
-1.20,0.57,0.00,0.03,-1.86,9.87
-1.14,0.72,0.00,-0.12,-2.00,9.66
-0.76,0.77,-0.01,-0.22,-2.05,9.78
-0.50,0.66,-0.03,-0.24,-1.93,9.90
-0.92,0.32,-0.03,-0.21,-1.60,9.90
-1.34,0.17,-0.07,-0.17,-1.76,9.71
-1.30,0.05,-0.07,-0.18,-2.02,9.52
-0.79,0.04,-0.06,-0.10,-2.20,9.42
-0.18,0.09,-0.05,-0.12,-2.08,9.42
-0.21,-0.14,-0.05,-0.28,-1.66,9.60
-0.63,-0.41,-0.07,-0.21,-1.69,9.59
-0.69,-0.52,-0.07,-0.04,-1.91,9.54
0.00,-0.24,0.03,-0.03,-2.11,9.43
0.34,-0.16,0.06,-0.02,-1.97,9.58
0.34,-0.09,0.06,0.02,-1.75,9.75
0.04,-0.06,0.07,-0.06,-1.63,9.80
-0.47,-0.13,0.09,0.11,-1.93,9.85
-0.35,0.02,0.15,0.23,-2.04,9.90
-0.17,0.26,0.19,0.11,-2.02,9.85
-0.09,0.39,0.21,0.03,-1.90,9.93
-0.27,0.35,0.18,0.03,-1.80,10.08
-1.03,0.16,0.13,0.08,-1.88,9.97
-1.11,0.13,0.08,0.15,-2.09,9.76
-0.78,0.16,0.10,0.23,-2.19,9.68
-0.27,0.40,0.06,-0.02,-1.91,9.85
-0.52,0.17,0.01,-0.14,-1.79,9.88
-0.90,-0.20,-0.05,-0.03,-1.85,9.86
-1.01,-0.32,-0.07,0.11,-2.03,9.65
-0.23,0.02,-0.09,0.15,-2.23,9.45
0.16,0.08,-0.10,-0.10,-2.10,9.48
0.28,-0.05,-0.16,-0.19,-1.91,9.63
0.09,-0.20,-0.21,-0.08,-1.80,9.75
-0.22,-0.28,-0.24,-0.05,-1.89,9.58
0.16,0.08,-0.21,0.10,-2.25,9.43
0.66,0.36,-0.20,-0.04,-2.19,9.49
0.86,0.38,-0.20,-0.15,-1.99,9.67
0.28,0.08,-0.17,-0.06,-1.76,9.78
-0.07,0.03,-0.10,0.06,-1.94,9.69
0.02,0.18,-0.06,0.04,-2.17,9.61
0.40,0.29,-0.03,-0.03,-2.25,9.66
0.70,0.08,0.09,-0.10,-1.84,10.00
0.19,-0.09,0.09,-0.05,-1.71,10.01
-0.32,-0.21,0.12,0.01,-1.82,9.91
-0.53,-0.19,0.16,0.02,-2.07,9.80
-0.30,-0.10,0.19,-0.01,-2.27,9.76
0.41,-0.15,0.21,-0.07,-1.96,9.83
0.13,-0.21,0.19,-0.05,-1.71,9.86
-0.46,-0.29,0.17,-0.05,-1.71,9.76
-0.52,-0.30,0.14,-0.05,-2.25,9.57
0.03,-0.27,0.14,-0.06,-2.27,9.48
0.48,-0.21,0.12,-0.04,-2.04,9.53
0.44,-0.13,0.07,-0.03,-1.77,9.65
-0.45,-0.15,-0.02,-0.05,-1.89,9.79
-0.39,-0.22,-0.06,-0.07,-2.16,9.71
0.05,-0.23,-0.09,-0.04,-2.26,9.59
0.49,-0.11,-0.13,0.06,-2.09,9.60
0.47,0.03,-0.15,0.08,-1.85,9.70
-0.27,-0.03,-0.19,-0.11,-1.90,9.87
-0.35,-0.28,-0.20,-0.05,-2.11,9.82
-0.07,-0.33,-0.21,0.09,-2.19,9.69
0.32,0.05,-0.19,0.13,-2.00,9.64
0.14,0.06,-0.18,0.03,-1.93,9.81
-0.05,-0.12,-0.17,-0.07,-1.97,9.93
-0.16,-0.30,-0.17,-0.02,-2.04,9.91
-0.07,-0.24,-0.10,0.18,-2.09,9.65
-0.01,-0.00,-0.04,0.16,-2.09,9.69
0.01,0.10,-0.01,0.05,-2.09,9.82
0.00,0.02,0.02,-0.03,-2.06,9.92
-0.07,-0.13,0.06,-0.03,-2.02,9.91
-0.31,-0.14,0.09,0.13,-2.10,9.63
-0.19,0.00,0.13,0.12,-2.19,9.59
0.03,0.10,0.16,0.03,-2.22,9.66
0.15,-0.14,0.20,-0.07,-2.03,9.80
-0.08,-0.24,0.19,-0.02,-1.98,9.72
-0.29,-0.25,0.21,0.05,-2.07,9.65
-0.24,-0.16,0.22,0.05,-2.24,9.62
0.31,-0.10,0.21,-0.08,-2.22,9.73
0.32,-0.20,0.19,-0.08,-2.05,9.78
0.02,-0.26,0.19,-0.04,-1.96,9.76
-0.31,-0.25,0.16,-0.00,-2.05,9.71
-0.34,-0.18,0.13,-0.02,-2.23,9.69
0.22,-0.10,0.07,-0.07,-2.26,9.71
0.25,-0.10,0.06,-0.05,-2.09,9.75
-0.02,-0.08,0.04,-0.03,-2.00,9.76
-0.40,-0.07,-0.01,-0.06,-2.24,9.73
-0.18,-0.08,-0.03,-0.06,-2.35,9.69
0.09,-0.07,-0.03,-0.02,-2.31,9.68
0.18,-0.03,-0.06,0.02,-2.18,9.70
-0.23,-0.03,-0.10,-0.01,-2.12,9.77
-0.37,-0.10,-0.10,-0.00,-2.26,9.78
-0.28,-0.17,-0.09,0.02,-2.39,9.73
0.03,-0.14,-0.05,0.03,-2.38,9.66
-0.08,-0.05,-0.11,0.09,-2.20,9.78
-0.27,-0.06,-0.05,-0.03,-2.27,9.82
-0.35,-0.08,-0.02,-0.07,-2.42,9.86
-0.37,-0.18,-0.10,0.04,-2.54,9.79
-0.03,-0.21,-0.04,0.12,-2.47,9.65
0.26,-0.05,0.05,0.16,-2.17,9.47
0.59,0.04,0.12,0.02,-1.93,9.35
0.84,0.00,0.12,-0.07,-1.65,9.30
1.19,-0.30,0.12,0.03,-1.25,9.15
1.79,-0.42,0.14,0.11,-1.11,9.03
2.59,-0.42,0.24,0.07,-0.98,8.89
3.46,-0.35,0.30,0.11,-0.84,8.85
4.57,-0.10,0.39,0.22,-0.27,9.24
4.49,0.06,0.42,0.15,0.03,9.46
4.06,0.06,0.41,-0.02,0.29,9.65
3.39,-0.11,0.45,-0.14,0.46,9.84
2.59,-0.38,0.43,-0.21,0.53,10.00
1.85,-1.03,0.34,-0.14,0.22,9.89
2.15,-1.25,0.34,-0.09,0.12,9.72
2.60,-1.21,0.32,-0.08,0.25,9.65
2.69,-0.97,0.21,-0.23,0.64,9.70
2.43,-0.88,0.15,-0.21,0.68,9.80
2.04,-0.79,0.06,-0.16,0.72,9.95
1.73,-0.70,0.02,-0.15,0.74,10.00
1.40,-0.58,-0.06,-0.14,0.49,9.82
1.58,-0.40,-0.10,-0.04,0.43,9.86
1.67,-0.17,-0.14,0.03,0.49,9.99
1.44,0.02,-0.15,0.01,0.57,10.15
0.93,0.06,-0.16,-0.01,0.50,10.27
0.38,0.02,-0.20,0.06,0.00,10.44
0.47,-0.05,-0.18,0.08,-0.15,10.48
0.53,-0.13,-0.15,0.14,-0.16,10.55
-0.18,-0.25,-0.12,0.23,-0.11,10.65
-0.64,-0.27,-0.10,0.22,-0.26,10.64
-0.92,-0.33,-0.04,0.21,-0.48,10.62
-0.96,-0.40,-0.01,0.22,-0.63,10.58
-0.80,-0.52,0.05,0.21,-0.57,10.32
-0.90,-0.59,0.09,0.23,-0.52,10.19
-1.01,-0.56,0.11,0.21,-0.53,10.01
-1.04,-0.50,0.11,0.20,-0.61,9.80
-0.83,-0.40,0.14,0.20,-0.70,9.60
-0.13,-0.14,0.14,0.15,-0.66,9.26
0.07,0.01,0.13,0.14,-0.55,9.20
0.12,0.16,0.13,0.12,-0.48,9.14
0.28,0.44,0.08,0.10,-0.57,9.14
0.52,0.59,0.06,0.06,-0.62,9.19
0.74,0.62,0.05,0.03,-0.60,9.31
0.89,0.59,0.03,0.01,-0.52,9.46
0.69,0.50,0.00,-0.04,-0.39,9.68
0.56,0.39,-0.02,-0.02,-0.42,9.75
0.58,0.31,-0.05,0.01,-0.44,9.82
0.61,0.28,-0.02,0.01,-0.39,9.88
0.57,0.24,0.01,-0.01,-0.28,9.96
0.22,0.06,0.02,-0.03,-0.13,10.07
0.03,0.01,0.04,-0.02,-0.13,10.08
-0.01,-0.03,0.05,-0.03,-0.15,10.03
0.16,-0.09,0.10,-0.01,-0.04,9.98
0.11,-0.05,0.11,-0.01,0.05,9.98
-0.01,-0.03,0.10,-0.04,0.08,9.97
-0.12,-0.03,0.12,-0.06,0.03,9.95
-0.01,-0.04,0.15,-0.04,-0.06,9.90
0.06,0.01,0.15,-0.06,-0.07,9.89
0.08,0.02,0.15,-0.08,-0.05,9.92
-0.01,0.01,0.14,-0.08,-0.05,9.95
-0.14,-0.03,0.10,-0.09,-0.11,9.96
-0.19,-0.10,0.06,-0.07,-0.27,9.92
-0.18,-0.11,0.02,-0.05,-0.30,9.90
-0.23,-0.12,-0.01,-0.03,-0.30,9.89
-0.40,-0.19,-0.05,-0.04,-0.35,9.84
-0.45,-0.25,-0.07,-0.01,-0.40,9.80
