angleSpeedx_y_z;lineAccx_y_z
0.01,-0.01,0.03,-0.04,-0.09,9.82
0.03,-0.02,0.04,-0.05,-0.08,9.82
0.04,-0.01,0.03,-0.04,-0.08,9.82
0.01,-0.02,0.03,-0.04,-0.08,9.82
0.02,-0.02,0.03,-0.05,-0.08,9.82
0.00,-0.00,0.03,-0.05,-0.09,9.81
-0.01,-0.00,0.05,-0.04,-0.08,9.82
-0.03,-0.02,0.04,-0.04,-0.08,9.82
-0.01,-0.02,0.04,-0.05,-0.08,9.81
0.00,-0.02,0.05,-0.05,-0.08,9.80
-0.00,-0.01,0.06,-0.04,-0.09,9.79
-0.00,0.02,0.06,-0.03,-0.09,9.79
0.02,0.05,0.06,-0.05,-0.08,9.80
0.00,0.03,0.05,-0.06,-0.08,9.81
-0.03,-0.01,0.05,-0.05,-0.08,9.81
-0.02,-0.01,0.03,-0.04,-0.09,9.81
-0.00,-0.02,0.05,-0.04,-0.09,9.81
-0.00,-0.02,0.05,-0.05,-0.10,9.81
-0.00,-0.02,0.05,-0.05,-0.10,9.82
-0.02,-0.07,0.03,-0.04,-0.09,9.82
-0.05,-0.04,0.03,-0.04,-0.09,9.80
-0.03,-0.01,0.05,-0.04,-0.10,9.80
0.01,0.00,0.05,-0.04,-0.10,9.80
-0.02,0.03,0.01,-0.07,-0.10,9.82
-0.07,0.02,0.00,-0.08,-0.12,9.82
-0.05,-0.00,-0.01,-0.06,-0.13,9.81
0.06,0.02,-0.00,-0.03,-0.09,9.79
-0.01,0.06,0.00,-0.04,-0.07,9.80
-0.07,0.05,-0.02,-0.07,-0.09,9.80
-0.07,-0.01,-0.01,-0.07,-0.13,9.82
0.01,-0.07,0.01,-0.04,-0.14,9.81
0.05,-0.04,0.03,-0.00,-0.07,9.77
-0.01,-0.01,0.03,-0.02,-0.06,9.78
-0.05,-0.02,0.06,-0.05,-0.09,9.81
-0.03,-0.04,0.07,-0.05,-0.14,9.82
0.11,-0.06,0.07,-0.01,-0.10,9.79
0.07,-0.02,0.07,-0.02,-0.07,9.79
-0.01,0.01,0.09,-0.04,-0.06,9.80
-0.03,0.03,0.09,-0.05,-0.10,9.83
0.03,-0.03,0.08,-0.05,-0.10,9.84
0.07,-0.02,0.08,-0.03,-0.06,9.82
-0.01,-0.03,0.07,-0.05,-0.07,9.79
-0.07,-0.01,0.04,-0.04,-0.07,9.80
0.02,-0.01,0.00,-0.08,-0.11,9.81
0.07,-0.05,0.04,-0.05,-0.07,9.81
0.08,-0.05,0.02,-0.04,-0.03,9.78
0.07,-0.03,0.01,-0.04,0.01,9.78
-0.07,0.03,0.00,-0.07,-0.01,9.79
-0.12,-0.02,-0.01,-0.04,-0.08,9.83
-0.08,-0.03,-0.01,-0.02,-0.14,9.84
0.09,-0.02,-0.01,-0.05,-0.13,9.80
0.28,-0.03,-0.01,-0.05,0.09,9.77
0.13,-0.03,-0.01,-0.01,0.17,9.82
-0.18,-0.01,-0.00,0.02,0.11,9.86
-0.42,0.05,0.02,0.02,-0.08,9.86
0.07,0.07,0.03,-0.07,-0.37,9.83
0.48,0.04,0.07,-0.06,-0.15,9.87
0.49,-0.03,0.09,-0.07,0.14,9.89
0.05,-0.10,0.08,-0.03,0.29,9.87
-0.76,-0.03,0.10,0.03,-0.20,9.75
-0.42,0.11,0.11,0.01,-0.46,9.73
0.22,0.19,0.12,-0.09,-0.46,9.76
0.61,0.10,0.10,-0.13,-0.15,9.83
-0.11,-0.21,0.07,-0.09,0.30,9.86
-0.67,-0.27,0.05,-0.01,0.09,9.75
-0.71,-0.17,0.06,0.02,-0.29,9.62
-0.21,0.06,0.04,0.01,-0.49,9.58
0.64,0.23,0.03,-0.15,-0.11,9.86
0.36,0.05,0.02,-0.17,0.18,9.97
-0.18,-0.15,0.02,-0.13,0.18,9.92
-0.49,-0.21,-0.03,-0.04,-0.03,9.76
-0.02,0.11,0.01,0.02,-0.43,9.67
0.33,0.23,0.02,-0.03,-0.32,9.81
0.38,0.21,0.02,-0.11,-0.14,9.94
0.17,0.04,-0.00,-0.16,0.03,9.97
-0.15,-0.23,-0.01,-0.01,-0.02,9.78
-0.19,-0.15,0.01,0.06,-0.14,9.70
-0.18,0.03,0.01,0.08,-0.23,9.72
-0.11,0.18,0.02,0.01,-0.28,9.78
0.19,0.01,0.05,-0.12,-0.19,9.90
0.33,-0.17,0.07,-0.12,-0.00,9.89
0.17,-0.27,0.05,-0.03,0.12,9.83
-0.15,-0.25,0.07,0.05,0.08,9.73
-0.29,0.07,0.07,0.05,-0.28,9.65
0.02,0.20,0.09,-0.04,-0.35,9.73
0.32,0.20,0.09,-0.11,-0.23,9.87
0.43,0.05,0.10,-0.15,-0.01,9.97
-0.05,-0.25,0.05,-0.05,0.14,9.81
-0.22,-0.21,0.06,0.03,-0.00,9.69
-0.22,-0.03,0.05,0.06,-0.16,9.65
-0.05,0.20,0.04,0.05,-0.25,9.73
0.31,0.15,0.04,-0.16,-0.10,9.94
0.42,-0.07,0.04,-0.17,0.08,9.95
0.34,-0.29,0.02,-0.13,0.20,9.83
0.20,-0.36,0.03,-0.00,0.24,9.70
0.19,-0.02,0.00,0.11,0.18,9.53
0.08,0.25,0.02,0.11,0.16,9.67
-0.21,0.45,0.03,0.03,0.08,9.87
-0.51,0.46,0.01,-0.08,-0.12,10.10
-0.12,-0.01,0.01,-0.22,-0.44,10.17
0.31,-0.28,0.03,-0.13,-0.26,10.08
0.32,-0.37,0.04,-0.01,0.02,9.98
-0.11,-0.29,0.03,0.05,0.14,9.83
-0.47,0.01,0.07,0.03,-0.13,9.52
0.11,0.08,0.09,-0.04,-0.15,9.45
0.75,0.06,0.10,-0.06,0.14,9.51
0.90,-0.04,0.11,-0.09,0.51,9.60
-0.19,-0.12,0.08,0.01,0.48,9.59
-0.37,0.03,0.09,0.07,0.06,9.53
0.14,0.25,0.11,0.04,-0.22,9.57
0.86,0.41,0.12,-0.06,-0.16,9.78
0.71,0.11,0.08,-0.23,0.45,10.27
0.00,-0.18,0.04,-0.17,0.44,10.24
-0.38,-0.34,0.03,-0.06,0.19,10.03
0.44,-0.08,0.06,0.04,0.01,9.74
0.71,0.09,0.07,0.01,0.32,9.82
0.50,0.07,0.05,-0.07,0.54,9.87
0.07,-0.07,0.06,-0.09,0.53,9.93
-0.16,-0.07,0.05,-0.06,0.46,9.90
-0.11,-0.14,0.04,0.01,0.28,9.70
0.07,-0.06,0.04,0.04,0.30,9.68
0.15,0.06,0.08,0.03,0.36,9.71
0.11,0.15,0.11,-0.01,0.39,9.78
0.04,-0.06,0.07,-0.09,0.34,9.82
0.23,-0.13,0.07,-0.05,0.31,9.80
0.48,-0.12,0.09,-0.02,0.38,9.76
0.58,-0.10,0.08,-0.01,0.64,9.71
0.44,-0.05,0.10,0.02,0.70,9.73
0.32,0.03,0.12,0.03,0.67,9.74
0.28,0.12,0.11,0.01,0.60,9.78
0.33,0.20,0.09,-0.02,0.54,9.85
0.37,0.13,0.09,-0.09,0.57,9.99
0.33,0.04,0.10,-0.08,0.59,10.00
0.25,-0.05,0.10,-0.04,0.60,9.97
0.24,-0.05,0.11,-0.02,0.61,9.92
0.37,-0.04,0.12,-0.04,0.68,9.81
0.42,-0.10,0.11,-0.10,0.76,9.72
0.58,-0.07,0.10,-0.03,0.77,9.76
0.64,-0.11,0.09,0.06,0.78,9.80
0.80,0.03,0.12,-0.03,0.97,9.67
0.69,0.04,0.12,-0.01,0.99,9.78
0.40,0.07,0.12,-0.03,0.98,9.83
0.07,0.12,0.11,-0.02,0.90,9.85
0.07,0.16,0.11,-0.05,0.59,9.91
0.31,0.14,0.12,-0.07,0.57,9.95
0.52,0.07,0.12,-0.10,0.70,9.99
0.54,-0.03,0.10,-0.11,0.87,9.98
0.32,-0.22,0.09,-0.04,0.99,9.79
0.41,-0.21,0.07,0.01,1.00,9.66
0.55,-0.10,0.08,0.04,1.08,9.60
0.78,-0.02,0.13,0.02,1.12,9.53
0.84,0.14,0.14,0.06,1.24,9.81
0.61,0.24,0.16,-0.01,1.28,9.90
0.15,0.22,0.16,-0.07,1.21,9.96
-0.15,0.16,0.14,-0.09,0.97,9.98
0.44,0.05,0.15,-0.07,0.65,9.97
0.95,-0.04,0.19,-0.09,0.85,9.97
1.06,-0.17,0.20,-0.09,1.17,9.97
0.95,-0.33,0.22,-0.08,1.35,9.86
0.68,-0.27,0.21,0.06,1.40,9.61
0.72,-0.06,0.21,0.05,1.47,9.51
0.69,0.16,0.20,0.09,1.46,9.61
0.15,0.54,0.19,-0.01,1.36,9.89
0.01,0.55,0.17,-0.13,1.21,9.99
0.02,0.38,0.13,-0.19,0.99,10.07
0.20,0.18,0.09,-0.16,0.85,10.15
0.39,0.03,0.07,-0.10,0.85,10.17
0.45,-0.15,0.01,-0.13,1.07,9.98
0.34,-0.25,-0.02,-0.09,1.17,9.87
0.26,-0.28,-0.04,-0.05,1.25,9.76
0.27,-0.23,-0.04,-0.03,1.33,9.67
0.25,-0.17,-0.07,-0.04,1.44,9.55
0.20,-0.10,-0.07,-0.01,1.46,9.56
0.08,-0.01,-0.05,0.00,1.41,9.61
-0.08,0.08,-0.06,-0.01,1.28,9.67
0.09,0.23,-0.07,-0.08,0.96,9.78
0.32,0.22,-0.07,-0.09,0.92,9.87
0.47,0.20,-0.10,-0.08,0.97,9.99
0.39,0.14,-0.09,-0.06,1.06,10.06
0.09,0.01,-0.09,-0.05,1.02,9.91
0.30,-0.05,-0.07,-0.00,1.01,9.80
0.64,-0.04,-0.04,0.01,1.13,9.74
0.73,0.00,0.01,0.04,1.37,9.73
0.15,0.00,0.07,0.08,1.48,9.75
-0.06,0.10,0.13,0.11,1.38,9.80
-0.10,0.10,0.16,0.04,1.20,9.77
-0.05,0.05,0.20,0.00,1.05,9.82
0.04,-0.00,0.23,-0.06,1.00,10.03
-0.02,-0.02,0.23,-0.10,0.96,10.06
-0.02,-0.16,0.22,-0.15,0.90,9.98
0.20,-0.28,0.21,-0.09,0.91,9.92
0.61,-0.28,0.23,-0.02,1.21,9.73
0.43,-0.20,0.24,0.03,1.33,9.69
0.14,-0.05,0.21,0.02,1.34,9.60
0.05,0.10,0.21,0.01,1.26,9.55
0.36,0.38,0.22,-0.01,1.23,9.73
0.22,0.44,0.19,-0.05,1.24,9.89
-0.07,0.48,0.13,-0.08,1.16,10.00
-0.29,0.45,0.10,-0.10,0.95,10.04
0.15,0.24,0.06,-0.13,0.68,9.99
0.44,0.16,0.03,-0.11,0.80,10.00
0.47,0.08,-0.01,-0.13,0.99,9.93
0.31,-0.07,-0.04,-0.14,1.13,9.82
0.18,-0.17,-0.11,-0.01,1.17,9.60
0.28,-0.12,-0.12,0.05,1.18,9.57
0.34,0.01,-0.12,0.01,1.23,9.58
0.25,0.16,-0.16,0.01,1.29,9.70
-0.23,0.24,-0.19,-0.08,1.12,9.94
-0.33,0.20,-0.19,-0.09,0.94,10.02
-0.24,0.12,-0.20,-0.06,0.76,10.06
0.00,0.06,-0.20,-0.07,0.67,10.02
0.33,-0.07,-0.14,-0.07,0.90,9.89
0.20,-0.17,-0.14,-0.01,1.02,9.86
0.04,-0.15,-0.11,0.03,1.06,9.75
0.02,-0.04,-0.08,0.05,1.05,9.66
0.33,0.10,-0.02,-0.00,1.18,9.60
0.35,0.12,0.01,0.06,1.28,9.73
0.12,0.18,0.04,0.05,1.31,9.79
-0.21,0.22,0.05,-0.02,1.18,9.81
-0.25,0.12,0.11,-0.09,0.71,9.84
0.06,0.08,0.09,-0.07,0.62,9.98
0.27,0.01,0.08,-0.11,0.65,10.04
0.34,-0.13,0.07,-0.19,0.77,10.03
0.17,-0.40,0.07,-0.13,0.95,9.98
0.12,-0.49,0.04,-0.14,0.99,9.80
0.22,-0.48,-0.00,-0.02,1.00,9.75
0.28,-0.32,-0.03,-0.01,1.08,9.68
0.07,-0.04,-0.03,-0.08,1.23,9.77
-0.16,-0.07,-0.10,-0.12,1.20,9.81
-0.41,-0.10,-0.13,-0.08,1.06,9.95
-0.56,-0.03,-0.17,-0.14,0.83,9.98
-0.22,-0.13,-0.19,-0.14,0.53,10.00
0.13,-0.15,-0.20,-0.10,0.65,10.04
0.16,-0.21,-0.23,-0.09,0.84,10.07
-0.08,-0.32,-0.25,-0.13,1.01,10.00
-0.49,-0.53,-0.25,-0.05,0.88,9.70
-0.16,-0.43,-0.22,0.06,0.83,9.62
0.22,-0.33,-0.21,-0.00,0.96,9.52
0.37,-0.33,-0.20,-0.04,1.20,9.50
-0.53,-0.24,-0.22,-0.04,1.16,9.58
-0.81,-0.24,-0.24,-0.06,0.78,9.47
-0.46,-0.24,-0.24,0.04,0.44,9.56
0.29,-0.14,-0.23,-0.01,0.40,9.61
0.74,-0.28,-0.17,-0.13,0.94,9.88
0.33,-0.50,-0.19,-0.12,1.09,9.89
-0.12,-0.66,-0.22,0.00,0.96,9.83
-0.05,-0.58,-0.20,0.08,0.78,9.72
0.88,-0.39,-0.15,0.02,1.04,9.59
0.71,-0.27,-0.17,0.14,1.34,9.84
0.05,-0.09,-0.18,0.07,1.41,9.90
-0.76,-0.09,-0.18,0.01,0.81,9.89
-0.36,-0.07,-0.19,0.02,0.56,9.94
0.08,0.05,-0.20,0.00,0.57,10.06
0.15,0.05,-0.21,-0.09,0.76,10.15
-0.17,-0.12,-0.25,-0.14,0.90,10.24
-0.83,-0.40,-0.27,-0.01,0.69,10.10
-0.46,-0.50,-0.28,-0.08,0.55,9.82
0.14,-0.60,-0.31,-0.07,0.65,9.61
0.52,-0.59,-0.31,0.04,0.94,9.59
-0.20,-0.25,-0.32,0.16,1.34,9.61
-0.74,-0.11,-0.32,0.08,1.05,9.50
-0.63,0.03,-0.31,0.14,0.66,9.58
-0.06,0.26,-0.28,0.21,0.48,9.86
0.41,0.24,-0.26,-0.23,0.79,10.17
-0.04,-0.10,-0.26,-0.09,0.84,10.39
-0.47,-0.26,-0.25,0.06,0.70,10.33
-0.35,-0.12,-0.24,0.13,0.52,10.17
0.23,0.18,-0.19,0.01,0.84,9.90
-0.09,0.31,-0.23,0.04,1.13,10.05
-0.76,0.50,-0.22,0.17,1.24,10.16
-1.33,0.58,-0.19,0.09,1.05,10.07
-1.06,0.36,-0.22,-0.04,0.62,9.73
-0.68,0.37,-0.25,0.04,0.66,9.78
-0.72,0.45,-0.30,-0.04,0.80,9.84
-1.69,0.05,-0.49,-0.23,0.47,9.83
-1.36,-0.17,-0.58,-0.11,0.09,9.84
-0.43,-0.23,-0.63,-0.13,0.03,9.73
0.44,-0.32,-0.64,-0.17,0.39,9.68
0.61,-0.57,-0.67,-0.14,0.88,9.65
-0.58,-0.36,-0.62,0.30,1.06,9.56
-0.72,0.09,-0.59,0.14,0.77,9.24
-0.17,0.32,-0.56,-0.05,0.60,9.08
0.50,0.48,-0.58,0.14,0.72,9.36
0.05,0.87,-0.48,-0.02,1.21,9.85
-0.73,0.73,-0.44,-0.04,0.97,9.94
-1.11,0.53,-0.39,0.05,0.46,9.94
-0.68,0.74,-0.43,0.08,0.10,9.84
0.47,0.83,-0.40,-0.27,0.62,9.90
0.07,0.34,-0.49,-0.21,1.04,10.06
-0.79,-0.01,-0.47,0.05,1.11,10.18
-1.32,-0.11,-0.42,-0.06,0.81,9.81
-0.30,-0.51,-0.45,-0.09,0.44,9.39
0.25,-0.47,-0.57,-0.09,0.77,9.46
0.11,-0.37,-0.61,-0.04,1.16,9.66
-0.61,-0.41,-0.61,-0.17,1.27,9.87
-1.50,-0.85,-0.72,-0.06,0.36,9.82
-0.72,-0.76,-0.68,-0.05,-0.05,9.76
0.43,-0.56,-0.68,-0.17,0.05,9.73
0.93,-0.53,-0.71,-0.15,0.57,10.00
-0.44,-0.66,-0.79,-0.12,1.00,9.98
-0.76,-0.55,-0.79,-0.00,0.66,9.77
-0.26,-0.27,-0.79,0.04,0.36,9.51
0.54,0.07,-0.77,0.06,0.46,9.54
0.54,0.54,-0.81,0.06,1.25,10.05
-0.32,0.60,-0.81,-0.07,1.30,10.20
-1.14,0.52,-0.83,-0.09,0.91,10.11
-1.20,0.45,-0.83,0.10,0.38,10.22
0.05,0.58,-0.75,0.08,0.22,10.18
0.20,0.57,-0.76,0.13,0.62,10.38
-0.41,0.43,-0.74,0.07,0.91,10.37
-1.26,0.33,-0.73,0.17,0.88,10.41
-1.60,0.44,-0.68,0.10,0.18,9.88
-0.79,0.38,-0.65,0.10,0.18,9.68
-0.00,0.34,-0.61,0.16,0.52,9.69
0.02,0.36,-0.67,0.19,0.97,9.68
-1.48,0.33,-0.66,0.06,0.86,9.22
-1.51,0.38,-0.71,0.24,0.33,9.15
-0.69,0.71,-0.67,0.25,0.01,9.16
0.30,0.87,-0.65,-0.06,0.07,9.15
0.57,0.12,-0.72,-0.18,0.69,9.69
0.07,-0.15,-0.80,-0.20,0.63,9.63
0.02,-0.23,-0.78,-0.11,0.36,9.51
0.62,-0.25,-0.77,-0.13,0.22,9.37
1.54,-0.13,-0.75,0.05,0.79,9.68
1.04,0.17,-0.76,-0.00,1.11,9.81
0.29,0.32,-0.77,-0.11,1.12,9.90
-0.29,0.38,-0.77,-0.20,0.84,9.99
0.04,0.64,-0.77,-0.03,0.46,10.31
-0.02,0.78,-0.73,-0.10,0.56,10.51
-0.55,0.73,-0.73,-0.22,0.61,10.55
-1.00,0.57,-0.76,-0.18,0.54,10.59
-1.25,0.35,-0.69,-0.06,0.35,10.38
-1.26,0.24,-0.72,-0.21,0.35,10.14
-1.25,-0.07,-0.72,-0.13,0.38,9.96
-1.03,-0.25,-0.77,0.02,0.48,9.99
-0.88,-0.58,-0.67,-0.07,0.68,9.42
-0.91,-0.66,-0.71,0.15,0.71,9.42
-0.87,-0.42,-0.67,0.15,0.70,9.26
-0.84,-0.13,-0.61,0.10,0.60,9.20
-0.60,0.17,-0.60,-0.01,0.41,9.55
-0.43,0.26,-0.59,-0.13,0.32,9.71
-0.32,0.30,-0.64,-0.12,0.18,9.90
-0.05,0.18,-0.69,-0.23,0.12,9.84
0.54,0.02,-0.72,0.03,0.29,9.89
0.67,0.08,-0.70,-0.03,0.48,9.66
0.74,0.05,-0.68,-0.11,0.67,9.53
0.74,0.06,-0.73,0.04,0.85,9.55
0.42,0.39,-0.71,-0.00,1.12,9.65
0.02,0.31,-0.73,-0.09,1.09,9.66
-0.21,0.01,-0.73,-0.07,0.89,9.74
-0.18,-0.12,-0.74,-0.02,0.65,9.84
-0.14,0.10,-0.70,-0.03,0.59,10.18
-0.52,-0.02,-0.72,-0.20,0.57,10.28
-1.01,-0.36,-0.75,-0.21,0.36,10.32
-1.16,-0.57,-0.74,-0.05,0.09,10.38
-0.38,-0.42,-0.66,-0.08,0.16,10.07
-0.10,-0.49,-0.61,-0.07,0.50,9.93
-0.18,-0.47,-0.63,0.02,0.85,9.88
-0.54,-0.33,-0.62,0.11,1.03,9.58
-1.00,0.47,-0.52,0.41,0.78,9.25
-0.70,0.94,-0.47,0.23,0.65,9.00
-0.24,1.37,-0.42,0.20,0.65,9.28
-0.62,1.60,-0.48,-0.11,0.73,9.72
-0.94,1.20,-0.47,-0.18,0.38,9.86
-0.75,0.65,-0.51,-0.19,-0.05,9.79
0.01,0.18,-0.59,-0.15,-0.26,9.62
0.92,-0.06,-0.60,-0.08,-0.09,9.59
1.27,-0.61,-0.62,-0.22,0.73,9.55
0.77,-0.90,-0.67,0.00,0.87,9.68
0.43,-0.93,-0.69,-0.05,0.81,9.47
0.52,-0.87,-0.67,-0.15,0.68,9.39
0.72,-0.66,-0.68,-0.14,0.84,9.88
0.20,-0.59,-0.68,-0.22,0.92,10.13
-0.34,-0.61,-0.68,-0.27,0.80,10.29
-0.70,-0.71,-0.68,-0.30,0.49,10.34
-0.84,-0.50,-0.71,-0.17,-0.00,10.52
-0.76,-0.43,-0.71,-0.32,0.00,10.43
-0.73,-0.58,-0.73,-0.28,0.12,10.37
-0.78,-0.73,-0.71,-0.12,0.27,10.24
-0.79,-0.70,-0.61,-0.06,0.40,9.59
-0.58,-0.68,-0.62,0.09,0.41,9.33
-0.19,-0.46,-0.61,0.13,0.50,9.13
0.03,-0.20,-0.59,0.10,0.65,9.08
-0.14,-0.06,-0.57,0.17,0.72,9.29
-0.19,-0.03,-0.55,0.13,0.45,9.34
0.02,0.01,-0.54,0.07,0.16,9.46
0.85,-0.15,-0.53,0.08,0.03,10.01
1.12,-0.35,-0.52,-0.06,0.20,10.11
1.08,-0.65,-0.53,-0.10,0.35,10.09
0.82,-0.87,-0.55,0.09,0.42,10.05
0.74,-0.76,-0.52,0.31,0.42,9.94
0.73,0.03,-0.50,0.23,0.66,9.60
0.57,0.32,-0.49,0.35,0.84,9.75
0.16,0.61,-0.45,0.33,0.91,9.85
-0.16,0.94,-0.42,0.23,0.88,9.85
-0.72,1.25,-0.44,0.14,0.52,10.03
-0.87,1.28,-0.48,0.07,0.26,10.04
-0.69,1.28,-0.40,0.07,0.04,10.06
-0.43,1.14,-0.44,0.04,-0.04,10.06
-0.06,0.77,-0.43,0.01,0.26,10.04
-0.22,0.60,-0.49,-0.04,0.42,9.90
-0.44,0.42,-0.53,-0.04,0.43,9.78
-0.51,0.29,-0.53,0.06,0.32,9.58
0.50,0.50,-0.41,0.29,0.54,9.51
0.61,0.72,-0.38,0.01,0.83,9.33
0.29,0.83,-0.39,-0.01,1.00,9.42
-0.30,1.07,-0.39,0.18,0.89,9.74
-0.86,1.42,-0.48,-0.24,0.00,9.62
0.11,1.29,-0.49,-0.19,-0.21,9.79
0.92,1.03,-0.50,-0.22,0.00,9.93
0.96,0.95,-0.50,-0.06,0.40,10.33
-0.24,0.44,-0.53,-0.50,0.49,9.83
-0.23,0.09,-0.62,-0.21,0.18,9.82
0.35,0.20,-0.64,0.01,0.10,9.75
1.07,0.55,-0.60,-0.05,0.40,9.75
0.46,0.19,-0.55,-0.35,1.18,9.97
-0.49,-0.09,-0.57,-0.27,1.01,10.13
-1.04,-0.11,-0.62,-0.18,0.47,10.13
-0.79,-0.04,-0.74,-0.40,0.01,9.95
0.35,-0.47,-0.73,-0.22,0.08,10.28
0.23,-0.49,-0.70,-0.22,0.42,10.43
-0.36,-0.70,-0.67,-0.32,0.55,10.18
-0.79,-0.97,-0.70,-0.29,0.39,9.97
-0.32,-0.62,-0.71,-0.10,0.09,9.51
0.26,-0.29,-0.70,-0.01,0.35,9.54
0.47,-0.12,-0.73,-0.02,0.68,9.51
-0.09,-0.14,-0.70,-0.01,0.90,9.47
-0.91,0.05,-0.61,0.07,0.33,9.31
-0.40,0.25,-0.63,0.07,0.01,9.31
0.39,0.50,-0.66,0.01,0.03,9.49
0.49,0.37,-0.66,-0.14,0.26,9.61
0.11,-0.48,-0.66,-0.03,0.29,9.87
0.01,-0.73,-0.68,0.11,0.16,9.73
0.48,-0.72,-0.61,0.03,0.10,9.56
0.93,-0.78,-0.58,-0.04,0.25,9.39
0.62,-0.63,-0.67,0.23,0.81,9.83
0.10,-0.39,-0.61,0.07,0.84,9.85
-0.33,-0.37,-0.64,0.08,0.62,9.90
-0.36,-0.41,-0.61,0.22,0.29,9.96
0.46,0.25,-0.51,0.19,0.24,10.19
0.25,0.56,-0.52,0.18,0.45,10.42
-0.23,0.69,-0.53,0.01,0.49,10.37
-0.64,0.71,-0.53,0.02,0.30,10.34
-0.47,1.09,-0.47,0.29,0.06,10.33
-0.30,1.11,-0.46,0.15,0.18,10.15
-0.14,1.09,-0.43,0.02,0.36,9.98
-0.32,0.97,-0.45,0.10,0.49,9.93
-0.52,0.95,-0.48,0.13,0.58,9.64
-0.59,0.79,-0.46,0.14,0.50,9.53
-0.48,0.67,-0.46,0.18,0.42,9.50
-0.44,0.56,-0.42,0.13,0.24,9.45
0.27,0.37,-0.39,-0.07,0.11,9.56
0.48,0.23,-0.43,-0.16,0.28,9.71
0.37,-0.09,-0.48,-0.34,0.34,9.71
0.28,-0.44,-0.50,-0.32,0.30,9.74
0.46,-0.71,-0.58,-0.19,0.18,9.66
0.83,-0.63,-0.56,-0.24,0.33,9.61
0.93,-0.67,-0.58,-0.42,0.57,9.54
0.60,-0.85,-0.63,-0.37,0.75,9.56
0.02,-0.55,-0.65,-0.10,0.51,9.66
-0.01,-0.33,-0.61,-0.34,0.36,9.53
0.35,-0.33,-0.64,-0.55,0.28,9.45
0.47,-0.35,-0.74,-0.06,0.37,10.10
0.14,-0.17,-0.68,-0.29,0.35,9.98
0.02,-0.36,-0.66,-0.36,0.23,9.94
0.16,-0.64,-0.67,-0.18,0.11,10.03
0.56,-0.61,-0.71,-0.17,0.22,10.01
0.47,-0.51,-0.70,-0.01,0.66,10.13
0.13,-0.64,-0.72,-0.03,0.75,10.10
-0.11,-0.67,-0.61,0.14,0.68,10.13
-0.01,-0.57,-0.57,0.08,0.61,9.97
0.16,-0.35,-0.52,0.16,0.73,10.21
-0.58,-0.21,-0.60,0.03,0.70,10.18
-0.98,-0.23,-0.61,-0.01,0.39,10.09
-0.05,-0.38,-0.53,0.14,0.03,10.03
0.28,-0.36,-0.49,0.05,0.27,9.99
0.10,-0.47,-0.48,-0.01,0.52,9.91
-0.26,-0.73,-0.55,-0.08,0.56,9.65
-0.47,-0.86,-0.60,0.17,0.43,9.61
0.26,-0.39,-0.53,0.13,0.48,9.19
0.52,-0.45,-0.50,0.12,0.67,9.15
0.42,-0.41,-0.48,0.34,0.80,9.32
0.04,-0.01,-0.46,0.37,0.75,9.39
0.08,0.65,-0.44,0.03,0.38,9.32
0.22,0.60,-0.48,0.15,0.19,9.47
0.67,0.86,-0.50,0.28,0.15,9.59
1.12,1.24,-0.46,0.21,0.22,9.53
1.02,1.41,-0.45,0.21,0.53,9.61
0.90,1.64,-0.46,0.22,0.50,9.63
0.86,1.96,-0.51,0.18,0.45,9.58
0.99,2.17,-0.54,0.02,0.51,9.67
0.69,1.87,-0.66,0.03,0.85,10.23
0.38,1.50,-0.64,-0.08,0.83,10.38
-0.08,0.98,-0.62,-0.10,0.65,10.38
-0.26,0.68,-0.66,-0.05,0.42,10.48
-0.01,0.14,-0.68,-0.36,0.28,10.31
0.10,-0.23,-0.75,-0.28,0.47,10.49
-0.26,-0.42,-0.77,-0.23,0.60,10.57
-0.96,-0.87,-0.73,-0.38,0.25,10.13
-0.53,-1.10,-0.72,-0.29,0.07,9.90
0.07,-1.02,-0.73,-0.11,0.16,9.86
0.66,-0.68,-0.68,-0.17,0.49,9.69
0.56,-0.41,-0.66,-0.21,0.84,9.64
-0.54,-0.01,-0.64,-0.12,0.81,9.48
-0.64,0.34,-0.60,-0.01,0.35,9.46
-0.07,0.68,-0.58,-0.09,0.04,9.32
0.82,0.88,-0.58,-0.18,0.11,9.48
0.96,0.43,-0.61,-0.43,0.69,9.70
0.38,0.01,-0.66,-0.23,0.61,9.81
0.16,-0.26,-0.73,-0.04,0.33,9.68
0.62,-0.42,-0.69,-0.17,0.16,9.38
1.86,-0.75,-0.71,-0.02,0.67,9.58
1.40,-0.91,-0.72,-0.07,1.12,9.75
0.62,-1.07,-0.82,-0.17,1.26,9.70
-0.00,-1.26,-0.80,-0.03,1.02,9.78
0.06,-1.04,-0.77,0.12,0.47,9.84
0.49,-0.75,-0.72,0.21,0.53,10.06
0.41,-0.45,-0.73,0.14,0.76,10.27
-0.25,-0.23,-0.75,-0.07,0.91,10.30
-1.40,-0.04,-0.79,0.10,0.32,10.27
-1.00,0.13,-0.76,0.20,0.05,10.08
-0.29,0.38,-0.69,0.22,0.14,9.99
-0.10,0.39,-0.75,0.06,0.92,9.69
-0.55,0.40,-0.71,0.22,1.04,9.70
-1.02,0.56,-0.72,0.22,0.85,9.45
-0.99,0.67,-0.74,0.24,0.54,9.32
-0.48,0.71,-0.71,0.36,0.30,9.43
0.63,0.78,-0.67,-0.00,0.59,9.73
0.44,0.45,-0.73,-0.09,0.70,9.90
0.09,0.00,-0.83,-0.09,0.62,10.07
0.05,-0.16,-0.78,0.11,0.34,10.15
1.02,-0.17,-0.75,-0.02,0.21,9.99
1.42,-0.15,-0.75,0.00,0.54,10.13
1.28,-0.07,-0.75,-0.00,0.95,10.21
0.56,0.11,-0.72,-0.08,1.15,10.34
-0.85,-0.07,-0.82,-0.14,0.76,10.06
-0.55,-0.07,-0.77,0.00,0.48,10.05
-0.10,0.16,-0.73,0.04,0.59,9.99
-0.13,0.27,-0.69,-0.17,0.87,9.88
-1.44,0.14,-0.77,-0.05,0.68,9.91
-1.67,0.33,-0.75,-0.05,0.26,9.75
-1.14,0.27,-0.75,-0.26,-0.03,9.39
-0.08,-0.04,-0.72,-0.21,-0.01,9.34
0.59,-0.08,-0.73,-0.04,0.77,9.39
0.08,-0.06,-0.71,-0.16,0.84,9.17
-0.27,-0.26,-0.75,-0.14,0.57,8.97
0.15,-0.24,-0.76,0.05,0.29,8.96
1.65,0.29,-0.71,-0.21,0.61,9.23
1.62,-0.07,-0.77,-0.39,0.93,9.46
1.04,-0.41,-0.85,-0.24,1.03,9.93
0.23,-0.56,-0.90,-0.20,0.78,10.03
0.87,-1.02,-0.96,-0.19,0.06,9.97
1.64,-1.04,-0.92,0.06,0.31,10.35
1.45,-0.73,-0.90,-0.03,0.88,10.57
0.43,-0.59,-0.92,-0.26,1.19,10.62
-1.38,-0.72,-1.02,0.10,0.55,10.56
-1.02,-0.24,-0.90,0.10,0.27,10.30
-0.35,0.10,-0.86,0.02,0.35,10.15
-0.10,0.04,-0.86,0.15,0.73,10.16
-1.46,0.53,-0.85,0.22,1.06,10.07
-2.11,0.76,-0.82,0.11,0.63,9.62
-1.77,0.73,-0.83,0.08,0.11,9.40
-0.84,0.81,-0.80,0.30,-0.02,9.48
0.05,1.06,-0.77,0.14,0.53,9.70
-0.23,0.59,-0.73,-0.13,0.70,9.56
-0.49,0.11,-0.78,-0.01,0.58,9.59
-0.45,0.00,-0.82,0.28,0.31,9.54
1.01,0.06,-0.75,-0.01,0.40,9.32
1.25,-0.12,-0.76,0.02,0.80,9.62
0.81,-0.27,-0.81,0.14,1.00,9.90
0.17,-0.32,-0.79,0.12,0.89,9.88
0.31,-0.22,-0.73,0.03,0.38,9.80
0.74,-0.05,-0.72,0.08,0.44,9.99
0.85,0.11,-0.69,-0.06,0.60,10.04
0.49,0.15,-0.68,-0.04,0.76,10.22
-0.56,0.30,-0.75,-0.12,0.50,10.16
-0.48,0.31,-0.74,-0.18,0.33,10.01
0.01,0.31,-0.73,-0.19,0.43,10.01
0.08,0.10,-0.78,-0.18,0.69,9.98
-0.82,-0.19,-0.81,-0.10,0.95,9.81
-1.37,-0.37,-0.82,-0.12,0.69,9.47
-1.18,-0.35,-0.86,-0.05,0.42,9.25
-0.67,-0.21,-0.80,0.17,0.28,9.27
-0.21,0.22,-0.71,-0.15,0.72,9.39
-0.56,0.00,-0.75,-0.14,0.73,9.49
-0.87,-0.14,-0.80,0.00,0.49,9.52
-0.70,0.11,-0.75,0.11,0.16,9.45
0.68,0.41,-0.74,-0.08,0.11,9.37
1.14,0.46,-0.75,0.03,0.42,9.63
1.00,0.63,-0.74,0.16,0.70,9.92
0.40,0.80,-0.77,-0.02,0.67,9.91
0.44,0.67,-0.74,0.17,0.14,10.10
0.99,0.80,-0.71,0.12,0.14,10.19
1.63,0.82,-0.68,-0.15,0.47,10.14
1.49,0.54,-0.68,-0.09,0.85,10.48
-0.39,0.02,-0.76,-0.12,0.91,10.32
-0.62,-0.15,-0.71,-0.04,0.40,10.12
-0.32,-0.27,-0.71,0.11,0.10,10.02
0.23,-0.29,-0.68,0.02,0.23,9.86
-0.02,-0.33,-0.70,-0.13,0.83,9.92
-0.91,-0.52,-0.72,-0.12,0.79,9.72
-1.35,-0.47,-0.71,-0.02,0.40,9.63
-1.06,-0.11,-0.70,0.11,0.04,9.58
0.15,0.28,-0.66,-0.16,0.34,9.65
0.03,0.28,-0.69,-0.16,0.71,9.81
-0.44,0.33,-0.71,-0.16,0.88,9.90
-1.06,0.32,-0.66,-0.08,0.70,9.92
-0.72,0.27,-0.73,-0.02,-0.04,9.43
0.29,0.60,-0.66,0.16,-0.03,9.59
0.91,0.91,-0.68,-0.05,0.39,9.63
0.72,0.75,-0.70,-0.29,0.83,9.68
-0.67,0.09,-0.75,-0.04,0.52,9.97
-0.55,-0.07,-0.73,-0.08,0.01,9.67
0.54,-0.15,-0.64,0.01,-0.26,9.61
1.69,-0.18,-0.66,-0.13,0.11,9.64
1.12,-0.49,-0.63,-0.08,1.22,10.08
-0.25,-0.73,-0.67,-0.12,1.10,9.98
-0.88,-0.86,-0.66,-0.05,0.51,9.72
-0.31,-0.74,-0.58,0.08,0.02,9.71
0.96,-0.42,-0.52,-0.12,0.52,9.90
0.45,-0.47,-0.47,-0.06,1.02,10.26
-0.80,-0.55,-0.45,-0.08,1.09,10.34
-1.83,-0.32,-0.34,0.18,0.11,9.89
-0.97,0.07,-0.31,0.20,-0.12,9.68
-0.20,0.58,-0.25,0.10,0.15,9.67
-0.14,0.71,-0.23,-0.02,0.58,9.69
-0.54,0.57,-0.27,-0.08,0.89,9.75
-1.38,0.44,-0.29,-0.01,0.51,9.53
-1.08,0.29,-0.29,0.01,0.17,9.45
-0.41,0.25,-0.29,0.07,0.06,9.52
0.16,0.22,-0.31,-0.10,0.23,9.52
0.15,-0.38,-0.38,-0.19,0.70,9.87
-0.17,-0.81,-0.45,-0.22,0.70,9.80
-0.37,-0.86,-0.44,0.12,0.47,10.02
-0.33,-0.58,-0.43,0.05,0.26,9.94
0.24,-0.60,-0.33,-0.01,0.29,10.15
0.26,-0.55,-0.34,-0.05,0.45,10.30
0.03,-0.43,-0.36,-0.17,0.61,10.23
-0.15,-0.42,-0.41,-0.30,0.63,10.07
-0.13,-0.66,-0.41,0.20,0.56,9.89
-0.20,-0.13,-0.37,0.46,0.54,9.85
-0.42,0.45,-0.29,0.08,0.50,9.47
-0.57,0.66,-0.28,-0.13,0.35,9.31
-0.18,1.03,-0.44,-0.03,0.37,9.69
-0.12,0.91,-0.47,-0.22,0.49,9.62
-0.12,0.33,-0.49,-0.30,0.55,9.64
-0.18,-0.22,-0.50,0.08,0.47,9.82
0.03,-0.18,-0.32,-0.02,0.35,9.54
-0.00,-0.14,-0.35,-0.11,0.40,9.73
-0.12,-0.32,-0.46,-0.13,0.57,9.89
-0.37,-0.44,-0.43,-0.03,0.60,10.27
-0.39,-0.93,-0.49,-0.44,0.43,9.76
-0.01,-1.16,-0.48,-0.03,0.32,9.96
-0.03,-0.89,-0.49,0.24,0.35,9.89
-0.04,-0.36,-0.39,0.02,0.39,9.59
0.02,0.14,-0.39,0.00,0.35,9.70
0.47,0.39,-0.40,-0.18,0.54,9.69
0.42,0.61,-0.40,-0.05,0.73,10.04
-0.28,0.55,-0.49,-0.21,0.74,9.96
-0.95,0.25,-0.44,0.35,-0.06,10.01
-0.14,0.52,-0.34,0.18,-0.20,9.60
0.93,0.64,-0.24,-0.01,0.06,9.53
1.16,0.64,-0.28,-0.02,0.58,9.81
-0.43,0.56,-0.46,0.04,0.85,10.01
-1.06,0.59,-0.45,0.31,0.32,10.16
-0.63,0.47,-0.39,-0.07,-0.08,9.68
0.71,0.24,-0.24,0.02,-0.08,9.83
0.71,0.33,-0.26,-0.06,0.85,10.22
-0.32,0.31,-0.27,-0.21,0.86,10.21
-1.10,0.07,-0.39,-0.13,0.34,10.15
-0.70,-0.12,-0.50,-0.08,-0.07,9.83
1.28,-0.15,-0.23,0.09,0.36,9.92
1.00,-0.32,-0.20,-0.05,0.92,9.83
-0.23,-0.37,-0.19,0.13,0.96,9.88
-1.24,-0.07,-0.25,0.03,0.45,9.56
0.16,0.14,-0.32,-0.14,-0.08,9.02
1.08,0.01,-0.39,0.09,0.35,9.27
1.13,0.26,-0.30,0.11,0.95,9.47
0.20,0.39,-0.20,0.01,1.07,9.46
-1.14,0.47,-0.27,0.01,-0.11,9.20
-0.01,1.05,-0.32,0.06,-0.44,9.23
1.41,1.45,-0.36,-0.12,-0.02,9.54
1.90,1.33,-0.42,-0.37,0.80,9.89
-0.50,0.09,-0.44,-0.06,1.02,10.22
-1.27,0.09,-0.39,-0.01,0.36,9.89
-0.91,0.13,-0.33,-0.02,-0.27,9.59
0.33,0.23,-0.39,0.01,-0.34,9.60
1.87,0.38,-0.34,-0.26,1.02,9.97
0.86,0.09,-0.37,-0.20,1.36,10.35
-0.85,-0.32,-0.37,-0.07,0.89,10.31
-1.59,-0.50,-0.32,0.03,0.01,9.90
1.06,0.08,-0.30,-0.13,-0.38,9.74
2.30,0.11,-0.33,-0.39,0.42,9.99
1.96,-0.24,-0.32,-0.37,1.13,10.46
0.22,-0.78,-0.33,-0.21,1.26,10.55
-1.20,-1.02,-0.24,0.09,-0.23,9.80
-0.03,-0.69,-0.19,0.10,-0.55,9.35
1.74,-0.20,-0.25,-0.12,-0.11,9.30
2.47,0.02,-0.28,-0.28,0.77,9.67
0.01,-0.64,-0.34,-0.26,1.18,10.33
-1.19,-1.10,-0.37,-0.17,0.48,10.09
-0.75,-1.19,-0.34,-0.24,-0.28,9.66
0.68,-1.16,-0.35,-0.09,-0.52,9.47
2.54,-1.01,-0.42,-0.30,0.91,9.60
1.50,-0.91,-0.44,-0.13,1.37,10.01
-0.35,-0.98,-0.52,-0.08,1.15,10.02
-1.50,-0.91,-0.50,0.04,0.44,9.99
0.14,-0.38,-0.43,-0.09,-0.30,9.68
1.36,-0.33,-0.38,-0.18,0.32,10.02
1.05,-0.41,-0.47,-0.10,1.07,10.29
-1.81,-0.57,-0.50,0.06,0.93,9.79
-2.34,-0.31,-0.50,0.43,-0.02,9.46
-1.52,0.09,-0.42,0.51,-0.46,9.05
0.24,0.75,-0.27,0.45,-0.26,9.24
1.37,1.23,-0.27,0.22,0.36,9.63
-0.75,0.94,-0.38,-0.05,1.02,10.51
-1.81,0.47,-0.41,-0.06,0.38,10.40
-1.38,0.00,-0.31,0.15,-0.37,10.31
0.35,-0.20,-0.19,0.30,-0.58,10.00
2.22,-0.16,-0.04,0.21,1.00,10.04
0.85,0.15,-0.11,0.10,1.40,10.19
-1.22,0.35,-0.23,0.16,1.10,10.43
-1.71,0.15,-0.24,-0.37,-0.24,10.23
0.03,-0.56,-0.14,-0.32,-0.17,10.33
1.11,-1.16,-0.09,-0.11,0.41,10.35
0.63,-1.31,-0.05,0.00,1.05,10.05
-0.97,-1.00,-0.03,0.17,1.12,9.79
-2.04,0.42,-0.22,0.16,-0.16,8.85
-0.74,1.13,-0.14,0.21,-0.26,9.04
0.58,1.53,-0.08,0.01,0.30,9.33
0.38,1.27,0.01,-0.09,0.92,9.71
-1.54,0.56,-0.00,-0.18,0.33,9.02
-1.07,0.76,-0.02,-0.01,-0.25,8.61
0.50,1.10,-0.09,-0.08,-0.23,8.30
1.86,1.08,-0.09,-0.07,0.23,8.60
1.01,0.69,-0.14,0.02,1.05,9.63
-0.21,0.56,-0.08,-0.05,0.65,9.90
-0.35,0.33,-0.04,-0.33,-0.13,9.82
1.09,-0.10,-0.11,-0.63,-0.47,9.77
3.17,-0.52,-0.19,-0.23,0.97,10.62
1.74,-0.65,-0.19,-0.31,1.47,10.72
-0.65,-0.69,-0.21,0.00,1.21,10.86
-2.08,-0.51,-0.32,-0.16,0.43,10.37
0.15,-0.05,-0.18,-0.26,-0.24,10.21
1.02,-0.25,-0.22,-0.45,0.64,10.49
0.13,-0.49,-0.25,-0.17,1.31,10.89
-3.27,-0.44,-0.31,-0.23,0.30,10.14
-2.94,-0.29,-0.30,-0.21,-0.40,9.75
-1.43,-0.20,-0.27,-0.20,-0.50,9.61
0.13,-0.07,-0.22,-0.09,-0.04,9.96
0.24,-0.18,-0.19,0.04,0.70,10.42
-1.91,-1.20,-0.13,-0.26,0.52,9.73
-1.50,-1.20,-0.15,-0.01,-0.17,9.29
0.03,-0.73,-0.13,0.03,-0.32,8.99
1.31,-0.28,-0.10,0.10,0.26,9.18
-0.46,-0.42,-0.05,0.09,1.28,9.71
-1.89,-0.44,-0.07,0.21,0.66,9.61
-1.78,-0.23,-0.03,-0.06,-0.13,9.04
-0.38,-0.29,-0.01,-0.33,-0.38,8.54
1.83,0.01,-0.11,0.43,0.61,9.59
0.97,0.20,0.01,0.23,0.98,9.66
-0.37,0.27,0.05,0.24,0.62,9.69
-0.75,0.26,-0.02,0.14,0.05,9.38
1.93,0.80,0.03,-0.08,0.11,9.79
2.07,0.49,-0.08,-0.10,0.90,10.21
0.91,-0.07,-0.06,-0.03,1.20,10.60
-0.70,-0.37,-0.05,0.26,0.83,10.64
-0.44,-0.27,0.13,0.04,-0.41,9.67
1.10,0.14,0.13,0.00,-0.03,9.83
1.40,0.40,0.13,-0.02,0.83,10.25
0.13,0.52,0.14,0.15,1.24,10.91
-2.59,0.27,0.16,-0.05,0.20,10.16
-1.91,0.33,0.26,-0.07,-0.34,9.73
-0.31,0.67,0.30,0.04,-0.23,9.51
0.67,0.92,0.29,0.04,0.35,9.62
-1.17,0.84,0.28,-0.06,1.02,9.62
-1.99,0.61,0.22,0.07,0.36,9.34
-1.41,0.85,0.26,0.12,-0.33,9.07
0.00,1.06,0.33,-0.13,-0.44,8.75
2.00,0.97,0.27,-0.10,0.73,9.74
1.11,0.55,0.25,-0.10,1.12,10.06
-0.24,0.21,0.27,-0.16,0.87,10.14
-0.75,0.11,0.26,-0.23,0.16,9.77
1.58,0.44,0.25,-0.27,0.03,9.88
1.92,0.34,0.25,-0.33,0.82,10.15
0.74,-0.12,0.15,-0.29,1.33,10.59
-1.04,-0.35,0.11,-0.13,1.13,10.65
-1.88,-0.18,0.11,-0.37,-0.18,9.53
-0.64,0.08,0.08,-0.28,-0.24,9.39
0.26,0.22,0.06,-0.25,0.33,9.52
-0.12,0.25,0.09,-0.16,0.91,9.95
-2.54,-0.27,-0.09,-0.33,0.19,9.50
-1.94,-0.23,-0.08,-0.24,-0.47,9.24
-0.19,0.07,-0.05,-0.19,-0.49,9.16
1.31,0.16,-0.07,-0.15,0.05,9.48
0.20,-0.30,0.01,-0.17,1.10,10.11
-1.19,-0.50,-0.05,-0.11,0.55,10.11
-1.21,-0.38,-0.11,-0.03,-0.29,9.99
0.52,-0.10,-0.08,-0.16,-0.54,9.98
2.20,-0.40,0.03,-0.02,0.88,10.91
0.73,-0.72,0.10,0.05,1.21,10.97
-0.89,-0.87,0.16,-0.09,0.85,10.40
-1.42,-0.85,0.06,-0.09,0.09,9.69
0.92,0.22,0.09,0.27,-0.07,9.24
1.31,0.68,0.16,0.45,0.56,9.62
0.53,0.78,0.26,0.19,1.02,9.75
-0.81,0.57,0.20,-0.15,0.86,9.63
-0.46,0.17,0.14,-0.08,-0.17,9.39
0.67,0.28,0.09,0.15,-0.02,9.74
0.89,0.20,0.20,0.18,0.49,9.90
-0.76,-0.34,0.28,-0.10,0.65,9.86
-0.84,-0.48,0.22,-0.31,0.30,9.44
-0.18,-0.40,0.19,-0.10,0.11,9.53
0.07,-0.26,0.23,0.15,0.23,9.73
-0.15,-0.03,0.23,0.14,0.41,9.94
-0.71,-0.08,0.28,-0.29,0.16,9.56
-0.14,-0.14,0.23,-0.50,0.05,9.38
0.27,-0.11,0.20,-0.25,0.07,9.54
0.21,0.02,0.17,-0.03,0.13,9.74
0.06,0.10,0.15,-0.05,-0.13,9.59
0.74,0.14,0.17,-0.10,-0.16,9.44
1.38,0.39,0.25,-0.07,0.02,9.47
1.36,0.79,0.23,-0.08,0.32,9.67
0.13,1.25,0.14,0.00,0.25,10.08
0.24,1.16,0.13,-0.14,-0.02,10.13
0.91,0.87,0.06,-0.36,-0.06,10.03
1.62,0.41,-0.00,-0.49,0.38,10.13
-0.06,-0.44,0.00,-0.16,0.89,10.43
-1.30,-0.70,0.00,0.03,0.39,10.33
-1.41,-0.83,0.07,-0.11,-0.26,9.85
-0.42,-1.00,0.09,-0.33,-0.45,9.52
1.00,-1.22,-0.01,-0.50,0.43,9.47
-0.01,-1.40,-0.06,-0.20,0.69,9.57
-0.98,-1.33,-0.03,0.14,0.38,9.62
-0.94,-0.97,0.05,0.14,-0.22,9.35
1.58,-0.37,0.19,-0.20,-0.25,9.01
2.35,0.06,0.11,-0.12,0.40,9.44
1.59,0.38,0.11,-0.06,0.96,10.00
0.04,0.46,0.14,0.00,0.82,10.30
-0.10,0.02,0.25,0.09,-0.58,10.09
1.79,0.24,0.42,0.03,-0.60,9.96
2.78,0.45,0.46,0.07,0.12,10.21
2.14,0.55,0.45,0.08,0.86,10.58
-0.93,0.53,0.38,0.00,0.47,10.73
-0.95,0.17,0.46,0.02,-0.21,10.34
0.18,-0.07,0.53,-0.02,-0.41,10.01
1.02,0.14,0.60,0.21,0.76,10.20
-0.60,0.28,0.57,0.09,1.00,10.12
-2.08,0.18,0.60,-0.05,0.51,9.75
-1.92,0.22,0.57,0.19,-0.24,9.64
-0.64,0.46,0.68,0.19,-0.53,9.45
0.67,0.98,0.67,-0.10,0.48,9.75
-0.51,0.69,0.63,-0.36,0.70,9.71
-1.61,0.26,0.47,-0.32,0.32,9.50
-1.35,0.09,0.55,0.01,-0.25,9.40
0.87,0.21,0.71,0.04,-0.18,9.02
1.20,0.54,0.72,-0.10,0.24,9.22
0.66,0.64,0.60,-0.45,0.51,9.13
-0.07,0.24,0.54,-0.19,0.16,9.57
0.21,0.12,0.58,-0.12,-0.13,9.55
0.60,0.15,0.68,-0.04,-0.30,9.72
1.02,0.38,0.67,-0.25,-0.22,9.83
1.00,0.42,0.62,-0.53,0.05,10.01
0.30,-0.16,0.52,-0.56,0.41,10.71
-0.42,-0.63,0.52,-0.37,0.26,10.70
-0.65,-0.72,0.56,0.01,0.03,10.60
-0.42,-0.35,0.65,0.10,-0.15,10.20
-0.22,1.09,0.75,0.03,0.39,10.11
-1.07,1.62,0.70,-0.08,0.60,10.16
-2.06,1.92,0.66,-0.03,0.41,10.40
-2.43,1.87,0.70,-0.25,-0.06,10.15
-0.83,1.09,0.73,-0.07,-0.37,10.02
-0.55,0.72,0.72,-0.27,-0.11,9.58
-0.57,0.27,0.72,-0.36,0.09,9.29
-0.70,-0.21,0.72,-0.13,0.07,9.26
-0.36,-0.73,0.68,-0.18,-0.02,9.16
-0.23,-0.92,0.73,-0.11,-0.02,9.45
-0.34,-1.29,0.66,-0.33,-0.02,9.64
-0.25,-1.72,0.70,-0.41,-0.07,9.71
0.72,-2.16,0.82,-0.39,0.16,9.85
0.68,-2.10,0.77,-0.27,0.46,9.96
-0.17,-1.82,0.75,-0.20,0.43,10.00
-0.95,-1.43,0.71,-0.26,0.09,9.78
0.09,-0.80,0.70,-0.27,-0.25,9.95
0.63,-0.66,0.78,-0.30,0.20,10.14
0.18,-0.54,0.83,-0.04,0.67,10.54
-1.34,-0.26,0.80,-0.09,0.65,10.51
-2.46,0.26,0.79,-0.03,-0.69,9.97
-1.10,0.49,0.72,-0.20,-0.78,9.73
0.12,0.44,0.71,-0.29,-0.21,9.67
0.19,0.17,0.73,-0.11,0.41,10.06
-1.88,-0.64,0.72,-0.11,0.02,9.40
-1.43,-0.71,0.79,0.18,-0.63,9.09
0.03,-0.48,0.78,0.19,-0.77,8.81
1.53,-0.09,0.77,0.01,-0.37,8.86
0.82,0.31,0.69,0.03,0.71,9.76
-0.32,0.07,0.66,-0.23,0.55,9.72
-0.62,-0.30,0.73,-0.16,-0.03,9.70
0.00,-0.46,0.70,0.03,-0.41,9.67
0.85,0.04,0.80,-0.00,0.20,10.01
0.16,0.22,0.72,-0.08,0.65,10.27
-1.18,0.02,0.68,-0.29,0.60,10.21
-1.90,-0.26,0.65,-0.34,0.11,10.01
-0.66,-0.09,0.72,0.01,-0.34,9.77
-0.18,0.10,0.73,-0.09,-0.11,9.67
-0.42,0.27,0.72,-0.02,0.24,9.86
-1.03,0.37,0.72,-0.08,0.29,9.82
-1.29,0.44,0.77,-0.18,-0.43,9.74
-0.31,0.31,0.79,-0.12,-0.56,9.72
0.54,0.16,0.81,-0.12,-0.26,9.75
0.84,0.11,0.90,-0.13,0.07,9.66
0.19,-0.03,0.88,-0.01,0.15,9.22
0.15,0.38,0.88,0.19,-0.14,9.30
0.37,1.00,0.90,0.21,-0.27,9.41
0.68,1.41,1.01,0.03,-0.23,9.70
0.70,0.87,1.01,-0.51,0.19,10.39
0.30,0.21,1.02,-0.40,0.13,10.59
-0.09,-0.29,0.99,-0.27,0.01,10.45
-0.06,-0.50,0.97,-0.24,-0.11,10.08
0.18,-0.65,1.05,-0.12,0.05,9.90
-0.10,-0.62,1.00,-0.21,0.19,9.85
-0.45,-0.64,1.09,-0.21,0.21,9.83
-0.74,-0.80,1.13,-0.25,0.01,9.64
-0.11,-0.55,1.12,-0.17,-0.20,9.44
0.22,-0.30,1.05,-0.18,-0.06,9.31
0.13,-0.07,1.07,-0.08,0.09,9.47
-0.33,0.21,1.09,-0.09,0.02,9.40
-0.04,0.87,1.19,0.01,-0.35,9.55
0.49,0.98,1.16,-0.20,-0.34,9.40
1.05,1.02,1.21,-0.24,-0.16,9.38
1.21,1.03,1.19,-0.14,-0.03,9.36
0.91,1.37,1.19,-0.07,0.05,9.41
0.62,1.58,1.11,-0.03,-0.13,9.61
0.66,1.47,1.21,-0.09,-0.23,10.08
1.04,1.14,1.25,-0.45,-0.30,10.57
1.15,-0.41,1.34,-0.44,0.30,11.19
0.37,-1.03,1.33,-0.34,0.42,11.18
-0.52,-1.11,1.28,-0.13,0.28,10.94
-0.91,-1.00,1.40,-0.25,-0.09,10.59
-0.45,-0.86,1.49,-0.23,-0.16,10.19
-0.26,-0.85,1.62,-0.47,0.08,9.89
-0.67,-0.92,1.64,-0.24,0.25,9.78
-1.05,-1.03,1.61,-0.30,0.17,9.28
-0.72,-0.48,1.71,-0.01,-0.36,8.52
-0.12,0.04,1.73,-0.07,-0.36,8.27
0.32,0.55,1.75,-0.02,-0.13,8.54
0.07,0.79,1.87,-0.30,0.13,8.99
-0.13,0.77,1.92,-0.20,-0.10,9.43
0.15,0.81,1.90,-0.22,-0.31,9.57
0.92,0.75,1.88,-0.35,-0.28,9.64
1.49,0.55,1.99,-0.24,-0.08,10.00
0.53,0.52,2.00,-0.12,0.29,10.54
-0.04,0.59,2.02,-0.12,0.05,10.73
-0.05,0.57,1.98,-0.22,-0.09,10.80
0.26,0.30,2.09,-0.49,-0.04,10.80
-0.40,-0.30,2.03,-0.20,0.40,10.99
-1.25,-0.55,2.09,-0.40,0.29,10.55
-1.81,-0.85,2.03,-0.33,-0.11,10.24
-1.51,-1.08,2.07,-0.31,-0.46,9.96
-0.12,-1.17,2.08,-0.35,-0.01,9.70
-0.45,-1.40,2.08,-0.45,0.31,9.60
-1.34,-1.62,1.95,-0.48,0.22,9.51
-1.83,-1.74,1.94,-0.31,-0.26,9.16
0.45,-1.30,2.07,-0.13,-0.59,8.95
1.10,-0.97,2.11,-0.06,-0.22,9.11
0.96,-0.45,2.09,-0.15,0.18,9.25
0.40,0.10,2.06,-0.13,0.22,9.33
0.76,0.87,1.99,-0.19,-0.39,9.25
1.66,1.18,2.02,0.03,-0.35,9.51
2.14,1.62,2.02,-0.05,0.06,9.79
1.58,1.70,2.04,-0.12,0.36,9.92
0.59,1.54,1.87,-0.19,-0.07,10.07
0.97,1.43,1.88,-0.21,-0.20,9.94
1.47,1.19,1.88,-0.14,-0.01,10.28
1.16,0.92,1.88,-0.03,0.30,10.66
-0.64,0.25,1.87,-0.27,-0.02,10.42
-0.53,0.03,1.80,-0.36,-0.36,10.20
0.07,-0.27,1.74,-0.48,-0.31,10.02
0.33,-0.49,1.70,-0.31,0.08,10.36
-1.43,-0.98,1.66,-0.39,0.33,10.22
-2.03,-1.21,1.66,-0.27,-0.16,10.08
-1.51,-1.13,1.67,-0.46,-0.54,9.63
-0.46,-1.08,1.67,-0.61,-0.48,9.43
-0.32,-1.09,1.49,-0.46,0.44,9.63
-1.28,-1.07,1.49,-0.30,0.33,9.59
-1.74,-0.85,1.43,-0.21,-0.18,9.29
-1.05,-0.56,1.46,-0.21,-0.65,8.87
1.38,0.24,1.43,-0.39,-0.25,8.93
1.35,0.40,1.36,-0.24,0.28,9.37
0.48,0.34,1.28,-0.13,0.45,9.62
-0.01,0.27,1.20,-0.28,0.04,9.31
1.44,0.39,1.16,-0.01,-0.56,9.34
2.26,0.55,1.17,-0.15,-0.20,9.59
2.19,0.60,1.08,-0.04,0.31,10.20
0.32,-0.10,0.91,-0.36,0.35,10.48
-0.07,-0.51,0.83,-0.18,-0.16,10.53
0.39,-0.73,0.81,-0.20,-0.51,10.28
1.21,-0.77,0.77,-0.10,-0.36,10.29
1.49,-0.82,0.73,-0.09,0.16,10.38
-0.57,-1.26,0.56,-0.19,0.42,10.27
-1.13,-1.24,0.47,-0.04,-0.07,10.11
-0.86,-1.02,0.43,-0.14,-0.50,9.79
-0.02,-0.80,0.40,-0.12,-0.52,9.68
0.37,-0.52,0.32,-0.08,0.31,9.97
-0.39,-0.52,0.28,-0.16,0.45,9.79
-0.96,-0.46,0.18,-0.08,0.23,9.74
-1.17,-0.19,0.07,-0.00,-0.14,9.50
-0.27,0.48,-0.02,0.08,-0.42,9.66
0.10,0.55,-0.11,-0.12,-0.20,9.66
0.21,0.24,-0.13,-0.16,0.12,9.81
-0.07,-0.07,-0.15,-0.03,0.24,9.97
-0.44,-0.10,-0.24,0.10,-0.27,9.50
0.11,0.25,-0.28,0.22,-0.46,9.43
0.80,0.59,-0.34,0.09,-0.31,9.42
1.11,0.69,-0.35,0.09,0.02,9.76
0.11,0.54,-0.37,-0.04,0.23,10.03
-0.11,0.42,-0.38,-0.08,-0.15,9.91
0.44,0.37,-0.43,0.04,-0.44,9.77
1.17,0.50,-0.45,0.16,-0.42,9.83
1.19,0.99,-0.44,-0.00,0.19,10.06
0.51,0.83,-0.48,-0.14,0.21,10.22
0.12,0.54,-0.55,-0.09,0.01,10.27
0.28,0.38,-0.47,-0.05,-0.23,10.20
0.97,0.20,-0.34,0.03,-0.16,9.83
0.97,0.22,-0.33,0.06,-0.02,9.69
0.87,0.46,-0.33,0.09,0.10,9.60
0.79,0.66,-0.32,-0.07,0.19,9.45
0.26,0.23,-0.24,0.02,0.09,9.75
0.08,0.12,-0.19,0.09,-0.09,9.84
0.26,0.05,-0.05,-0.06,-0.21,9.74
0.58,-0.04,0.04,-0.19,-0.09,9.70
-0.09,-0.19,0.08,-0.11,0.39,10.01
-0.87,-0.12,0.11,-0.16,0.27,9.98
-1.36,-0.20,0.14,0.01,-0.14,9.83
-0.94,-0.21,0.25,0.09,-0.49,9.59
0.89,0.47,0.43,-0.03,0.14,9.54
0.20,0.64,0.32,-0.27,0.64,9.63
-1.10,0.51,0.25,-0.34,0.58,9.68
-1.92,0.26,0.25,-0.10,0.00,9.92
-0.35,-0.05,0.37,-0.20,-0.78,9.81
0.76,-0.24,0.41,-0.16,-0.36,9.96
0.87,-0.30,0.41,-0.34,0.25,10.00
-0.09,-0.44,0.36,-0.40,0.49,9.96
-1.05,-0.51,0.25,-0.07,-0.31,9.83
-0.33,-0.37,0.26,-0.08,-0.61,9.65
0.76,-0.16,0.30,-0.07,-0.41,9.84
0.54,-0.36,0.21,-0.49,0.43,9.99
-0.12,-0.70,0.22,-0.28,0.39,9.99
-0.48,-0.92,0.19,-0.11,0.00,9.74
-0.06,-0.75,0.18,-0.13,-0.37,9.33
0.66,-0.42,0.21,0.05,-0.53,9.19
1.26,0.33,0.17,-0.19,0.24,9.48
0.53,0.25,0.11,-0.20,0.39,9.78
-0.07,0.01,0.08,-0.27,0.26,9.94
-0.30,-0.25,0.09,-0.11,-0.17,10.07
0.61,-0.06,0.07,-0.19,-0.39,9.79
1.05,-0.00,0.03,-0.18,-0.05,9.86
0.94,0.02,0.01,-0.03,0.37,10.03
-0.71,0.43,0.09,0.31,0.20,10.28
-0.87,0.83,0.14,0.19,-0.24,10.23
-0.44,1.08,0.16,0.02,-0.54,10.23
0.37,1.22,0.16,-0.05,-0.34,10.42
0.64,1.07,0.24,-0.22,0.13,10.60
-1.23,0.53,0.28,0.33,0.28,10.78
-1.81,0.57,0.39,0.21,-0.27,10.24
-1.19,0.71,0.42,0.03,-0.71,9.85
0.07,0.68,0.52,-0.00,-0.57,9.78
0.10,0.66,0.67,0.30,0.52,10.41
-1.21,0.66,0.75,0.02,0.45,10.15
-1.79,0.51,0.77,-0.18,-0.05,9.70
-1.28,0.20,0.83,-0.06,-0.55,9.49
0.64,0.22,0.98,-0.26,0.02,9.16
0.23,-0.16,1.03,-0.24,0.36,9.12
-0.57,-0.39,0.95,-0.19,0.28,8.96
-0.97,-0.36,0.99,-0.13,-0.06,8.60
0.78,0.22,1.12,-0.21,-0.45,8.39
1.37,0.42,1.17,-0.20,-0.03,8.65
0.93,0.92,1.23,0.10,0.40,9.44
-0.14,1.47,1.27,0.06,0.36,9.78
0.26,1.15,1.37,-0.66,-0.45,9.33
1.45,0.95,1.37,-0.08,-0.34,9.67
1.86,1.25,1.46,-0.13,0.17,9.68
1.05,1.53,1.54,-0.20,0.45,9.61
-0.45,1.47,1.72,-0.16,-0.16,9.82
0.19,1.50,1.77,-0.20,-0.46,10.02
1.07,1.48,1.89,-0.26,-0.23,10.48
1.13,1.08,1.97,-0.74,0.19,10.48
-0.79,-0.35,2.06,-0.33,0.18,10.62
-0.82,-0.56,2.16,-0.30,-0.25,10.04
-0.06,-0.66,2.36,-0.26,-0.44,9.78
0.71,-0.50,2.46,-0.31,-0.23,9.85
-0.31,-0.22,2.60,-0.51,0.44,10.34
-1.18,-0.52,2.61,-0.70,0.14,10.21
-1.26,-0.91,2.74,-0.60,-0.34,10.03
0.75,-0.58,3.09,-0.14,-0.31,9.80
0.91,-0.08,3.23,-0.41,0.21,9.76
-0.02,0.22,3.27,-0.42,0.52,9.89
-1.10,0.41,3.32,-0.36,0.40,10.16
-1.50,0.43,3.40,-0.58,-0.11,9.95
0.32,0.19,3.75,-0.28,-0.37,10.03
0.54,0.34,3.81,-0.37,0.08,9.98
-0.21,0.49,3.92,-0.32,0.41,10.18
-1.11,0.43,3.99,-0.46,0.28,10.15
-0.60,0.01,4.22,-0.22,-0.26,9.90
-0.04,0.28,4.33,-0.16,-0.14,9.88
-0.13,0.44,4.44,-0.31,0.17,9.88
-0.74,0.32,4.57,-0.46,0.28,10.00
-1.05,-0.32,4.67,-0.55,-0.08,9.57
-0.41,-0.46,4.81,-0.40,-0.18,9.50
-0.04,-0.36,4.92,-0.29,0.08,9.50
-0.40,-0.20,5.11,-0.28,0.24,9.70
-1.12,-0.24,5.27,-0.64,-0.11,9.39
-0.52,-0.34,5.42,-0.51,-0.32,9.49
0.04,-0.24,5.47,-0.52,-0.16,9.46
0.13,-0.14,5.68,-0.52,0.13,9.55
-0.67,-0.01,5.82,-0.48,0.04,9.41
-0.53,0.20,6.05,-0.54,-0.23,9.30
0.18,0.53,6.09,-0.53,-0.20,9.30
0.71,0.76,6.25,-0.49,0.19,9.61
-0.58,0.76,6.43,-0.52,0.40,9.85
-0.92,0.87,6.59,-0.50,0.05,9.90
-0.63,0.96,6.67,-0.66,-0.34,9.60
0.16,0.98,6.77,-0.63,-0.36,9.72
0.50,0.94,6.92,-0.65,0.33,10.22
-0.41,0.83,7.02,-0.58,0.38,10.53
-1.14,0.60,7.11,-0.82,0.02,10.28
-0.95,0.25,7.23,-0.92,-0.44,9.96
0.90,0.16,7.45,-0.65,-0.18,9.87
0.93,0.30,7.56,-0.74,0.38,10.01
-0.05,0.22,7.58,-0.88,0.68,10.09
-1.16,-0.07,7.61,-0.97,0.38,10.01
-0.55,-0.24,7.70,-0.76,-0.71,9.58
0.84,0.07,7.86,-0.87,-0.50,9.55
1.23,0.19,7.82,-0.94,0.14,9.86
0.45,0.03,7.86,-1.05,0.64,10.16
-1.33,-0.71,7.83,-0.96,-0.15,9.78
-0.58,-0.75,7.97,-0.94,-0.59,9.45
0.55,-0.54,7.99,-0.90,-0.57,9.32
1.21,-0.32,7.97,-0.77,0.00,9.60
-0.01,-0.71,8.05,-1.04,0.47,9.60
-0.44,-0.94,8.06,-0.87,0.17,9.57
-0.27,-0.89,8.07,-0.88,-0.26,9.36
0.36,-0.59,8.06,-0.74,-0.32,9.45
0.62,-0.45,8.05,-1.18,0.33,9.87
-0.25,-0.92,8.01,-0.96,0.43,10.25
-1.05,-1.18,8.03,-0.83,0.14,10.11
-1.08,-1.13,8.05,-0.69,-0.39,9.76
0.84,-0.11,8.07,-0.79,-0.36,9.38
1.14,0.10,8.07,-0.85,0.27,9.66
0.34,0.19,8.03,-0.75,0.62,10.01
-0.84,0.18,7.92,-0.76,0.37,9.95
-0.18,0.24,7.94,-0.67,-0.65,9.57
1.14,0.32,7.94,-0.65,-0.40,9.53
1.63,0.60,7.98,-0.56,0.26,9.95
0.67,0.68,7.97,-0.70,0.70,10.08
-1.05,0.26,7.90,-0.63,-0.24,10.00
-0.25,0.30,7.92,-0.61,-0.78,9.77
1.09,0.37,7.94,-0.64,-0.62,9.78
1.07,-0.17,8.00,-0.98,0.51,9.92
0.16,-0.68,7.92,-1.01,0.49,9.94
-0.22,-1.03,7.95,-0.89,0.12,9.87
0.02,-1.29,7.97,-0.86,-0.20,9.60
0.69,-1.33,8.00,-0.87,-0.22,9.47
0.70,-1.18,8.05,-0.91,0.29,9.58
0.16,-1.09,8.05,-0.88,0.34,9.72
-0.33,-0.86,8.03,-0.81,0.21,9.91
-0.52,-0.59,8.07,-0.99,0.03,9.82
-0.30,-0.42,8.03,-0.88,-0.26,9.96
-0.00,-0.25,8.02,-0.93,-0.10,9.80
0.01,-0.01,8.02,-0.84,0.11,9.99
-0.40,0.22,8.03,-0.84,0.25,10.15
-1.03,0.09,7.99,-0.86,0.04,10.07
-1.01,0.10,8.00,-0.76,-0.14,9.88
-0.66,0.15,7.97,-0.76,-0.22,9.68
-0.29,0.25,7.95,-0.70,-0.10,9.74
-0.15,0.18,8.01,-0.70,0.10,9.73
-0.38,0.18,8.00,-0.46,-0.03,10.07
-0.44,0.21,8.01,-0.77,-0.18,9.79
-0.04,0.05,8.02,-0.92,-0.28,9.84
0.45,-0.47,7.87,-0.90,-0.10,9.72
0.62,-0.60,7.97,-0.55,0.07,10.04
0.55,-0.41,7.99,-0.54,0.26,10.04
0.09,-0.47,8.06,-0.97,0.26,9.73
-0.18,-0.42,7.88,-0.81,-0.14,9.98
0.25,-0.38,7.94,-0.92,-0.04,9.77
0.34,-0.48,7.97,-0.77,0.24,10.07
-0.23,-0.66,7.92,-0.92,0.52,9.84
-1.43,-0.89,7.88,-0.81,0.01,9.52
-1.27,-0.83,7.89,-0.85,-0.35,9.13
-0.48,-0.60,7.95,-0.75,-0.41,9.30
0.02,-0.25,8.01,-0.44,-0.12,9.65
-0.91,0.03,8.13,-0.92,0.31,9.81
-1.38,0.03,8.03,-1.00,0.09,9.76
-1.21,-0.02,8.07,-0.90,-0.21,9.73
0.01,-0.02,8.18,-0.62,-0.18,9.74
0.25,-0.04,8.28,-0.66,0.14,9.63
-0.08,0.04,8.29,-0.59,0.26,9.74
-0.64,0.25,8.28,-0.71,0.10,9.73
-0.70,0.47,8.26,-0.93,-0.22,9.67
0.66,0.17,8.25,-0.89,-0.21,10.30
0.63,-0.24,8.23,-0.91,0.14,10.50
-0.04,-0.58,8.23,-0.90,0.30,10.43
-0.61,-0.83,8.16,-1.06,0.13,10.13
-0.18,-1.42,8.12,-1.16,-0.23,9.92
0.32,-1.68,8.10,-1.06,0.04,9.96
-0.00,-1.94,8.10,-0.93,0.27,9.97
-0.98,-1.88,8.07,-0.95,-0.05,9.35
-0.44,-1.47,8.06,-0.93,-0.25,9.20
0.10,-1.08,8.03,-0.83,-0.10,9.34
0.06,-0.68,7.98,-0.87,0.24,9.71
-0.64,-0.45,7.98,-0.99,0.32,9.84
-1.06,-0.99,8.01,-0.89,-0.31,9.56
-0.07,-0.87,8.06,-0.79,-0.35,9.33
0.50,-0.64,8.11,-0.62,-0.03,9.36
0.14,-0.36,8.11,-0.63,0.35,9.53
-1.40,-0.34,8.06,-0.64,-0.03,9.58
-0.82,-0.40,8.13,-0.58,-0.44,9.61
0.21,-0.39,8.19,-0.72,-0.47,9.57
0.79,-0.29,8.21,-0.62,-0.16,9.82
0.14,-0.05,8.16,-0.59,0.17,10.09
-0.07,0.07,8.18,-0.53,-0.05,10.10
0.45,0.20,8.25,-0.61,-0.25,10.01
1.09,0.34,8.25,-0.66,-0.10,10.15
0.09,0.29,8.09,-0.88,0.38,10.36
-0.66,-0.15,8.08,-0.93,0.18,10.25
-0.68,-0.52,8.06,-0.67,-0.10,10.03
-0.23,-0.60,8.09,-0.70,-0.11,9.77
-0.41,-0.27,8.24,-0.58,0.28,9.84
-1.27,-0.26,8.19,-0.76,0.24,9.84
-1.60,-0.23,8.10,-0.87,-0.01,9.72
-1.22,-0.35,8.11,-0.99,-0.17,9.50
-0.49,-0.73,8.13,-0.72,0.01,9.62
-0.77,-0.63,8.13,-0.84,0.09,9.51
-1.04,-0.72,8.10,-1.00,-0.04,9.30
-0.72,-0.96,8.11,-1.02,-0.23,9.18
0.53,-0.94,7.98,-0.96,-0.05,9.18
0.46,-0.77,7.93,-0.86,0.11,9.46
0.06,-0.76,7.84,-1.04,0.09,9.51
0.02,-1.03,7.83,-1.09,-0.10,9.42
1.34,-1.03,7.80,-0.75,-0.22,9.65
1.55,-0.66,7.82,-0.87,0.10,9.80
1.09,-0.39,7.74,-0.95,0.34,10.17
0.28,-0.30,7.60,-0.95,0.32,10.53
-0.12,-0.49,7.60,-0.92,-0.09,10.66
0.06,-0.71,7.59,-0.85,-0.02,10.60
-0.22,-0.85,7.60,-0.71,0.16,10.51
-0.73,-0.78,7.56,-0.73,0.25,10.39
-1.52,-1.16,7.51,-1.06,0.09,9.95
-1.63,-1.70,7.45,-0.76,-0.10,9.94
-1.55,-1.76,7.43,-0.52,-0.23,9.89
-1.23,-1.57,7.49,-0.58,-0.32,9.63
-0.42,-1.62,7.45,-0.85,-0.12,9.31
-0.15,-1.67,7.42,-0.66,0.04,9.37
-0.32,-1.52,7.39,-0.48,0.06,9.45
-0.42,-1.28,7.34,-0.59,-0.15,9.20
1.17,-0.88,7.26,-0.56,-0.34,9.02
1.98,-0.45,7.26,-0.59,0.05,9.17
1.55,-0.31,7.19,-0.70,0.48,9.46
0.51,-0.32,7.10,-0.73,0.49,9.68
0.11,-0.26,6.97,-0.56,-0.50,10.03
1.33,-0.15,6.97,-0.72,-0.42,10.17
1.96,-0.31,7.00,-0.69,0.25,10.54
1.09,-0.64,7.00,-0.60,0.80,10.81
-1.77,-0.42,6.94,-0.41,0.06,10.74
-1.59,-0.34,6.94,-0.57,-0.47,10.29
-0.39,-0.19,6.96,-0.52,-0.39,10.17
0.47,-0.23,6.99,-0.56,0.22,9.96
-0.85,-0.81,6.91,-0.49,0.58,9.47
-1.62,-0.79,6.84,-0.31,0.04,9.02
-1.23,-0.40,6.82,-0.56,-0.35,8.51
0.11,-0.13,6.84,-0.53,-0.39,8.56
1.20,-0.20,6.74,-0.69,0.14,9.18
0.91,-0.17,6.76,-0.74,0.27,9.46
0.38,-0.42,6.64,-0.84,0.05,9.58
0.61,-0.78,6.49,-1.05,-0.17,9.42
1.84,-1.09,6.35,-0.57,0.21,9.79
1.45,-0.91,6.34,-0.71,0.59,9.88
0.32,-0.85,6.27,-0.73,0.69,10.20
-0.60,-0.98,6.10,-0.94,0.43,10.27
-0.07,-1.56,6.02,-0.91,0.04,10.46
0.11,-1.67,5.91,-0.90,0.34,10.41
-0.62,-1.63,5.82,-0.59,0.51,10.62
-1.75,-1.51,5.77,-0.82,-0.08,9.97
-1.02,-1.46,5.75,-0.52,-0.26,10.03
-0.45,-1.21,5.72,-0.55,-0.11,9.89
-0.53,-0.90,5.67,-0.59,0.08,9.79
-0.97,-0.72,5.52,-0.59,0.11,9.70
-0.29,-0.99,5.36,-0.40,-0.33,9.25
0.78,-0.83,5.31,-0.29,-0.21,9.27
1.17,-0.65,5.27,-0.48,0.09,9.11
0.89,-0.65,5.14,-0.39,0.28,9.38
0.60,-0.56,4.93,-0.38,-0.00,9.65
1.01,-0.44,4.93,-0.15,-0.09,10.15
1.46,-0.44,4.86,-0.51,0.03,10.16
1.29,-0.73,4.81,-0.50,0.20,10.48
0.57,-0.77,4.62,-0.38,0.21,10.48
0.47,-0.68,4.65,-0.13,0.21,10.61
0.48,-0.52,4.63,-0.28,0.40,10.44
-0.12,-0.64,4.58,-0.37,0.48,10.24
-1.11,-0.48,4.47,-0.37,0.10,9.92
-0.79,-0.47,4.46,-0.42,0.05,9.81
-0.59,-0.65,4.39,-0.34,0.22,9.90
-0.92,-0.98,4.38,-0.42,0.42,9.66
-1.67,-1.27,4.24,-0.28,0.03,9.34
-1.52,-1.25,4.17,-0.45,-0.26,9.00
-0.74,-1.09,4.07,-0.38,-0.24,9.10
-0.30,-1.08,3.96,-0.44,0.14,9.34
-0.53,-1.01,3.90,-0.31,0.16,9.52
-0.58,-0.92,3.81,-0.28,-0.03,9.54
-0.24,-0.80,3.71,-0.49,-0.19,9.49
0.31,-0.66,3.55,-0.50,-0.20,9.61
0.89,-0.94,3.36,-0.53,0.45,9.78
0.39,-1.04,3.21,-0.23,0.53,10.02
-0.34,-0.89,3.11,-0.17,0.33,9.85
-0.47,-0.56,3.08,-0.28,-0.14,9.63
1.13,0.00,2.67,-0.51,-0.17,9.64
1.59,-0.02,2.55,-0.42,0.37,9.97
0.97,-0.34,2.41,-0.36,0.80,10.17
-1.09,-1.04,2.14,-0.16,-0.07,9.73
-0.48,-1.03,2.03,-0.30,-0.64,9.33
0.94,-0.92,1.93,-0.45,-0.53,9.38
1.70,-1.06,1.81,-0.41,0.24,9.83
1.08,-1.56,1.71,-0.35,0.87,10.31
-1.73,-2.20,1.50,-0.25,0.37,10.08
-1.53,-2.34,1.41,-0.28,-0.28,9.65
-0.42,-2.18,1.31,-0.08,-0.42,9.60
0.32,-1.78,1.22,-0.11,0.05,9.77
-1.33,-1.58,1.04,-0.06,0.78,10.25
-2.37,-1.77,0.97,-0.13,0.30,10.08
-2.20,-1.77,0.93,-0.02,-0.33,9.80
-1.13,-1.49,0.89,0.06,-0.52,9.70
-0.28,-1.01,0.66,-0.04,0.35,9.78
-1.00,-1.08,0.56,0.11,0.55,9.90
-1.70,-1.01,0.50,0.32,0.39,9.86
-1.88,-0.76,0.50,0.26,-0.01,9.59
-0.63,-0.18,0.20,0.07,-0.31,9.71
-0.06,-0.18,0.10,0.07,0.11,10.08
-0.28,-0.45,0.03,-0.01,0.49,10.35
-0.97,-0.91,-0.03,0.01,0.52,10.29
-1.33,-1.59,-0.25,0.05,-0.30,9.53
-0.41,-1.41,-0.32,0.16,-0.50,9.40
0.41,-1.06,-0.34,0.31,-0.22,9.60
0.48,-0.86,-0.43,0.18,0.26,9.72
-0.84,-1.41,-0.59,-0.10,0.23,9.56
-0.45,-1.51,-0.71,-0.09,-0.20,9.28
0.41,-1.41,-0.75,0.13,-0.35,9.30
1.18,-1.14,-0.82,0.17,-0.07,9.39
0.58,-1.00,-0.79,0.20,0.45,9.79
0.05,-0.87,-0.86,0.02,0.31,9.77
0.00,-0.73,-0.90,0.03,0.08,9.83
0.29,-0.66,-0.91,0.04,0.06,10.12
-0.19,-1.36,-0.93,-0.11,0.24,10.26
-0.45,-1.84,-0.89,0.11,0.17,10.17
-0.46,-2.05,-0.75,0.18,0.03,9.83
-0.36,-1.87,-0.73,0.26,0.04,9.67
-0.85,-1.19,-0.70,0.13,0.37,9.85
-1.51,-1.20,-0.75,0.08,0.34,10.14
-1.71,-1.48,-0.69,0.08,0.10,10.27
-1.36,-1.95,-0.59,0.12,-0.10,10.13
-0.65,-2.37,-0.46,0.24,-0.02,9.66
-0.74,-2.07,-0.47,0.20,0.02,9.29
-0.66,-1.73,-0.53,0.21,0.01,9.10
-0.44,-1.49,-0.54,0.37,-0.04,9.11
0.21,-1.00,-0.50,0.33,0.10,9.39
0.17,-0.98,-0.43,0.22,0.09,9.41
0.27,-1.02,-0.50,0.02,-0.07,9.32
0.68,-1.08,-0.56,0.07,-0.13,9.20
1.61,-0.84,-0.60,0.41,0.41,9.58
0.84,-0.56,-0.61,0.48,0.66,9.85
-0.15,-0.39,-0.64,0.23,0.48,9.76
-0.62,-0.49,-0.64,0.06,-0.02,9.76
1.06,-1.05,-0.74,-0.02,-0.24,9.91
1.57,-1.35,-0.67,0.33,0.21,10.27
1.06,-1.44,-0.71,0.38,0.60,10.23
-0.02,-1.32,-0.69,0.28,0.62,9.83
-0.65,-0.62,-0.75,0.39,-0.32,9.64
0.14,-0.16,-0.73,0.22,-0.34,9.78
0.81,-0.05,-0.72,0.24,-0.01,10.30
0.74,-0.50,-0.77,0.02,0.45,10.44
-0.53,-1.75,-0.72,0.10,0.27,9.90
-0.44,-1.81,-0.74,0.22,-0.20,9.39
0.16,-1.53,-0.73,0.32,-0.54,9.14
1.12,-0.92,-0.86,0.46,-0.26,9.37
0.84,-0.56,-0.69,0.24,0.70,10.33
-0.36,-0.86,-0.76,-0.06,0.63,10.57
-1.11,-1.38,-0.83,-0.25,0.06,10.46
-0.65,-1.81,-0.88,-0.14,-0.49,10.27
1.51,-2.06,-0.83,0.27,0.16,10.15
1.11,-2.00,-0.73,0.46,0.85,10.27
-0.57,-1.85,-0.67,0.35,1.01,10.16
-2.03,-1.46,-0.69,0.15,0.64,9.81
-1.80,-0.92,-0.68,0.31,-0.47,9.51
-0.65,-0.60,-0.68,0.45,-0.23,9.64
-0.26,-0.45,-0.60,0.33,0.29,9.65
-1.97,-0.77,-0.75,0.21,0.32,9.26
-1.97,-0.69,-0.78,0.16,-0.18,8.97
-1.21,-0.66,-0.82,0.15,-0.43,8.94
-0.13,-0.91,-0.87,0.18,-0.28,9.26
0.45,-1.55,-0.83,0.08,0.00,9.55
0.36,-2.53,-0.78,0.24,0.36,9.56
0.32,-2.35,-0.77,0.38,0.28,9.40
0.27,-1.59,-0.86,0.70,0.34,9.54
-0.19,-0.64,-0.76,0.61,0.47,9.72
-1.74,0.65,-0.97,0.47,0.20,10.54
-1.70,0.61,-0.96,0.12,-0.08,10.48
-1.08,0.24,-1.03,0.06,-0.14,10.49
-0.98,-0.56,-1.08,0.26,0.27,10.05
-1.42,-0.49,-1.14,0.66,0.16,9.93
-1.46,-0.17,-1.09,0.60,-0.18,9.62
-1.07,0.02,-1.19,0.50,-0.32,9.42
-0.51,0.10,-1.16,0.53,-0.15,9.93
-0.83,-0.53,-1.42,-0.02,0.31,10.36
-1.15,-1.31,-1.34,0.03,0.06,10.44
-0.95,-2.20,-1.41,0.11,-0.24,10.00
-0.02,-2.66,-1.33,0.25,-0.30,9.68
0.74,-2.06,-1.52,0.42,0.21,9.37
0.20,-1.50,-1.53,0.36,0.43,9.60
-0.40,-1.10,-1.67,0.20,0.34,9.75
-0.04,-1.35,-1.60,0.07,-0.11,10.18
0.24,-1.57,-1.65,0.17,-0.11,10.30
0.24,-1.43,-1.63,0.25,-0.04,10.28
0.02,-1.12,-1.81,0.07,-0.01,9.79
0.01,-0.97,-1.87,0.19,0.08,9.64
0.06,-0.66,-1.94,0.53,0.36,9.66
-0.52,-0.50,-1.87,0.69,0.34,9.83
-1.00,-0.36,-1.87,0.43,0.11,9.65
-0.96,-0.52,-1.92,0.13,-0.18,9.53
0.68,-1.45,-2.01,0.21,-0.04,9.43
0.89,-1.84,-1.99,0.48,0.33,9.53
0.19,-1.97,-2.06,0.57,0.45,9.27
-0.51,-1.86,-2.06,0.66,0.14,8.92
0.61,-0.78,-2.06,0.66,-0.40,8.70
1.47,-0.28,-2.04,0.51,-0.03,8.94
1.42,-0.06,-2.09,0.61,0.45,9.44
0.56,0.10,-2.16,0.61,0.63,9.89
-0.42,0.15,-2.20,0.40,-0.23,9.78
0.54,0.17,-2.23,0.43,-0.32,10.12
1.09,0.03,-2.32,0.25,0.09,10.38
0.63,-0.44,-2.38,0.33,0.67,10.88
-1.69,-1.81,-2.43,0.23,0.35,10.13
-1.51,-2.28,-2.34,0.43,-0.35,9.36
-0.09,-2.09,-2.31,0.81,-0.63,8.89
1.07,-1.36,-2.36,0.89,-0.26,8.69
0.81,0.82,-2.45,0.97,0.53,9.08
-0.17,1.33,-2.46,0.71,0.41,9.29
-0.46,1.57,-2.50,0.68,-0.01,9.75
-0.01,1.65,-2.47,0.67,-0.42,10.47
1.86,0.70,-2.68,-0.17,-0.13,10.59
2.03,-0.25,-2.68,0.04,0.37,10.78
1.16,-0.89,-2.84,0.38,0.70,10.70
0.00,-1.06,-2.89,0.71,0.56,10.55
-0.29,-0.70,-2.95,0.55,-0.22,10.00
0.29,-0.66,-2.95,0.37,-0.17,10.32
0.48,-0.66,-3.07,0.18,0.27,10.80
-0.22,-1.04,-3.14,0.01,0.64,11.05
-1.84,-2.33,-3.22,0.24,-0.08,10.37
-1.08,-2.28,-3.21,0.64,-0.58,9.85
0.17,-1.58,-3.25,0.77,-0.45,9.51
0.71,-0.79,-3.23,0.69,0.12,9.43
-1.18,0.09,-3.43,0.57,0.52,9.47
-1.60,0.25,-3.35,0.64,-0.01,9.35
-0.87,0.30,-3.39,0.68,-0.51,9.22
0.49,0.34,-3.43,0.57,-0.52,9.18
1.27,0.19,-3.54,0.63,0.26,9.33
0.82,0.08,-3.55,0.63,0.45,9.31
0.42,-0.08,-3.59,0.77,0.33,9.32
0.34,-0.11,-3.61,0.83,0.13,9.48
0.77,-0.03,-3.66,0.64,-0.08,9.54
0.93,-0.18,-3.67,0.53,0.02,9.67
0.77,-0.38,-3.79,0.58,0.22,9.86
0.57,-0.58,-3.82,0.60,0.40,9.96
-0.22,-0.78,-3.91,0.75,0.24,9.85
-0.48,-0.51,-3.93,0.82,0.04,9.82
-0.44,-0.15,-4.00,0.73,-0.08,9.78
-0.17,-0.05,-4.04,0.55,-0.00,9.75
-0.16,-0.27,-4.12,0.60,0.28,9.96
-0.63,-0.35,-4.19,0.54,0.19,9.79
-0.76,-0.41,-4.27,0.64,-0.10,9.70
-0.23,-0.49,-4.27,0.65,-0.32,9.58
0.79,-0.30,-4.37,0.75,0.05,9.86
0.46,-0.17,-4.45,0.60,0.30,9.91
-0.13,-0.28,-4.57,0.51,0.33,9.99
-0.23,-0.49,-4.60,0.48,0.13,10.03
0.38,-0.70,-4.76,0.79,-0.14,10.08
0.60,-0.55,-4.86,0.70,-0.02,9.99
0.44,-0.42,-4.96,0.67,0.17,10.05
0.29,-0.33,-4.95,0.64,0.26,10.15
-0.00,-0.39,-5.04,0.65,0.28,10.18
-0.34,-0.46,-5.14,0.68,0.07,9.98
-0.39,-0.52,-5.27,0.68,-0.10,9.74
0.12,-0.42,-5.25,0.78,-0.18,9.63
0.37,-0.12,-5.40,0.86,0.45,9.97
-0.42,0.00,-5.45,0.76,0.53,10.09
-1.44,-0.24,-5.51,0.77,0.28,10.19
-1.50,-0.47,-5.52,0.73,-0.21,10.16
0.12,-0.77,-5.64,0.93,-0.24,10.09
0.38,-0.59,-5.72,0.83,0.24,10.01
-0.51,-0.59,-5.83,0.80,0.58,9.86
-1.54,-0.57,-5.85,1.03,0.40,9.87
-1.23,0.02,-5.92,1.14,-0.39,9.47
-0.44,0.44,-5.98,1.04,-0.32,9.55
-0.08,0.63,-6.15,0.75,0.10,9.55
-0.45,0.37,-6.15,0.72,0.43,9.82
-1.61,-0.15,-6.35,0.99,0.13,9.76
-1.38,-0.30,-6.30,1.07,-0.30,9.52
-0.61,-0.19,-6.36,0.98,-0.38,9.28
0.22,0.02,-6.44,1.04,0.11,9.41
0.03,0.11,-6.46,1.01,0.41,9.58
-0.50,0.26,-6.51,1.05,0.35,9.70
-1.03,0.37,-6.67,1.04,0.04,9.61
-0.74,0.47,-6.62,1.01,-0.31,9.56
0.72,0.62,-6.75,1.07,-0.00,9.85
0.57,0.77,-6.75,1.04,0.38,10.10
-0.32,0.76,-6.91,0.86,0.52,9.92
-1.09,0.54,-7.01,0.82,0.29,9.84
-0.62,0.65,-7.19,1.14,-0.31,9.98
-0.15,0.69,-7.17,0.93,-0.16,10.13
-0.06,0.52,-7.26,0.77,0.16,10.16
-0.56,0.09,-7.30,0.85,0.33,10.33
-1.21,0.11,-7.53,1.01,0.06,10.06
-1.29,0.27,-7.55,0.90,-0.10,9.81
-0.94,0.38,-7.71,0.92,-0.12,9.70
-0.69,0.44,-7.73,1.08,0.01,9.95
-1.22,0.47,-7.80,1.04,0.19,9.94
-1.31,0.24,-7.75,0.96,0.04,9.82
-1.26,0.22,-7.88,0.90,-0.17,9.55
-0.86,0.28,-7.95,1.14,-0.19,9.54
-0.18,0.34,-8.01,1.07,0.09,9.33
-0.27,0.31,-7.99,1.19,0.22,9.44
-0.57,0.41,-8.03,1.20,0.08,9.39
-0.59,0.52,-8.12,1.09,-0.06,9.31
0.36,0.13,-8.25,0.88,0.01,9.47
0.27,-0.29,-8.28,0.87,0.28,9.76
-0.26,-0.75,-8.27,0.80,0.31,9.78
-0.76,-1.15,-8.38,0.99,0.07,9.81
0.19,-1.34,-8.34,1.12,-0.37,9.35
1.09,-0.97,-8.28,1.28,0.02,9.57
1.01,-0.41,-8.31,1.25,0.57,9.67
-0.26,0.06,-8.38,1.35,0.80,9.87
-1.75,1.02,-8.48,1.17,-0.30,9.60
-0.84,1.25,-8.43,1.30,-0.54,9.70
0.20,1.42,-8.38,1.27,-0.27,10.01
0.35,1.52,-8.51,1.11,0.23,10.20
-1.37,0.91,-8.69,1.03,0.32,10.20
-1.72,0.68,-8.81,1.10,-0.07,10.07
-1.30,0.57,-8.81,1.11,-0.41,9.96
-0.53,0.37,-8.95,1.07,-0.33,9.92
-0.39,-0.66,-9.13,0.86,0.27,9.91
-0.82,-1.01,-9.23,1.03,0.27,9.82
-0.94,-1.19,-9.26,1.10,-0.01,9.55
-0.48,-1.12,-9.36,1.15,-0.27,9.31
0.48,-0.54,-9.52,1.01,-0.15,9.42
0.49,-0.35,-9.65,1.08,0.08,9.77
0.38,-0.28,-9.74,1.15,0.22,10.04
0.14,-0.39,-9.82,0.94,-0.00,9.91
0.36,-0.42,-9.93,1.24,-0.11,9.92
0.61,-0.20,-9.95,1.31,-0.07,9.94
0.63,0.11,-10.02,1.25,0.10,9.88
0.39,0.26,-10.13,1.26,0.32,9.95
-0.61,-0.10,-10.18,1.29,0.24,9.94
-0.70,-0.17,-10.15,1.36,-0.03,9.91
-0.52,-0.23,-10.17,1.34,-0.28,9.72
-0.07,-0.26,-10.29,1.41,-0.17,9.62
-0.14,-0.22,-10.34,1.34,0.28,9.62
-0.75,-0.24,-10.42,1.48,0.33,9.74
-0.96,-0.22,-10.36,1.45,0.05,9.67
-0.39,-0.24,-10.44,1.37,-0.23,9.56
0.06,-0.48,-10.53,1.04,-0.21,9.24
0.32,-0.80,-10.71,1.19,0.01,9.32
0.43,-0.96,-10.73,1.22,0.18,9.42
0.01,-1.03,-10.89,1.34,0.18,9.42
-0.10,-0.84,-10.85,1.40,-0.15,9.73
0.23,-0.79,-10.95,1.29,-0.28,9.83
0.76,-0.70,-10.94,1.30,-0.13,10.20
0.92,-0.68,-11.05,1.05,0.14,10.20
-0.04,-0.89,-11.26,1.26,0.21,10.14
-0.12,-0.92,-11.35,1.42,-0.18,9.67
0.49,-0.70,-11.33,1.69,-0.29,9.51
1.01,-0.16,-11.38,1.57,-0.12,9.39
0.69,0.84,-11.59,1.40,0.29,9.60
0.00,0.90,-11.75,1.34,0.14,9.77
0.08,0.74,-11.84,1.40,-0.07,9.78
0.73,0.25,-11.73,1.39,-0.30,9.62
1.70,0.04,-11.90,1.56,0.17,9.73
1.01,0.29,-11.93,1.64,0.39,9.80
0.23,0.46,-12.00,1.61,0.32,9.97
-0.07,0.29,-12.02,1.36,0.11,9.91
0.50,-0.34,-12.01,1.65,-0.09,10.46
0.51,-0.55,-11.93,1.56,0.03,10.32
0.26,-0.54,-11.87,1.52,0.03,10.20
0.05,-0.36,-11.98,1.64,0.01,10.01
0.28,0.38,-11.89,1.73,0.33,9.99
-0.25,0.51,-11.98,1.51,0.50,10.00
-1.19,0.31,-11.96,1.49,0.42,10.08
-1.74,0.04,-11.99,1.57,-0.05,9.94
-0.17,-0.37,-11.92,1.27,-0.54,9.28
0.85,-0.66,-11.96,1.39,-0.07,9.31
0.84,-0.76,-11.95,1.66,0.49,9.65
-0.33,-0.57,-11.94,1.59,0.59,9.58
-1.06,-0.25,-12.04,1.65,-0.55,9.37
0.28,-0.04,-11.98,1.45,-0.77,9.23
1.60,0.19,-11.89,1.56,-0.40,9.59
2.03,0.32,-11.88,1.57,0.27,9.98
0.23,0.21,-11.94,1.55,0.45,9.93
-0.07,0.50,-11.98,1.64,0.05,9.73
0.17,0.71,-12.00,1.53,-0.25,9.62
0.64,0.86,-11.97,1.63,-0.23,9.89
0.43,0.96,-11.87,1.38,0.52,10.43
-0.51,0.63,-11.89,1.23,0.51,10.40
-1.30,0.16,-11.98,1.44,0.19,10.40
-1.18,0.04,-11.97,1.50,-0.28,10.09
0.21,0.46,-11.98,1.64,-0.13,9.89
0.11,0.49,-11.99,1.52,0.30,9.92
-0.77,0.44,-12.01,1.52,0.45,10.10
-1.53,0.43,-11.98,1.45,0.18,10.02
-0.75,0.09,-12.01,1.49,-0.63,9.76
0.45,0.09,-12.01,1.45,-0.41,9.71
0.81,0.06,-12.00,1.42,0.17,9.80
0.25,-0.08,-12.06,1.43,0.59,9.97
-1.39,-0.36,-12.08,1.61,0.04,9.74
-0.97,-0.20,-12.02,1.69,-0.38,9.65
0.02,-0.05,-11.99,1.44,-0.43,9.56
0.64,-0.07,-12.06,1.39,-0.02,9.80
-0.78,-0.24,-12.09,1.49,0.63,10.18
-1.86,-0.24,-12.11,1.61,0.21,10.08
-1.80,-0.08,-12.02,1.71,-0.33,9.88
-0.94,0.03,-11.90,1.72,-0.57,9.72
0.32,0.24,-11.96,1.32,0.34,9.56
-0.50,-0.00,-12.07,1.27,0.72,9.40
-1.62,-0.33,-12.11,1.53,0.53,9.22
-1.96,-0.40,-12.05,1.85,-0.09,8.93
-0.12,0.23,-11.87,1.90,-0.52,8.77
0.60,0.81,-11.89,1.83,-0.15,9.06
0.57,1.19,-11.95,1.52,0.31,9.31
-0.09,1.31,-12.04,1.49,0.49,9.78
-1.06,0.78,-11.96,1.61,-0.28,10.25
-0.36,0.73,-11.91,1.68,-0.50,10.44
0.40,0.59,-11.90,1.51,-0.40,10.36
0.83,0.41,-11.90,1.38,-0.10,10.32
0.30,0.08,-12.02,1.32,0.46,10.17
-0.39,-0.22,-12.08,1.39,0.29,10.02
-0.45,-0.40,-12.10,1.63,-0.12,9.91
-0.13,-0.41,-12.06,1.65,-0.42,9.78
1.10,-0.16,-12.05,1.19,-0.01,9.90
0.74,-0.44,-12.18,1.22,0.38,10.14
0.20,-0.44,-12.24,1.34,0.41,10.37
-0.49,-0.52,-12.25,1.39,0.11,10.17
-0.19,-0.56,-12.21,1.52,-0.33,9.77
0.37,-0.18,-12.21,1.64,-0.18,9.74
0.50,0.23,-12.16,1.66,0.15,9.96
-0.13,0.34,-12.17,1.42,0.39,9.93
-1.13,0.16,-12.22,1.72,0.02,10.09
-0.85,0.24,-12.19,1.62,-0.27,9.80
-0.20,0.24,-12.16,1.54,-0.24,9.51
0.13,0.18,-12.10,1.75,0.18,9.48
-0.24,0.31,-12.11,1.69,0.24,9.30
-0.53,0.29,-12.10,1.67,-0.01,9.11
-0.19,0.21,-12.13,1.64,-0.26,8.97
0.55,0.08,-12.05,1.61,-0.35,8.88
1.48,0.16,-12.04,1.71,0.04,9.27
1.20,0.10,-12.01,1.64,0.07,9.29
1.16,0.12,-12.06,1.65,-0.07,9.34
1.58,0.21,-12.02,1.68,-0.23,9.26
2.61,0.69,-12.05,1.71,0.18,9.54
2.24,0.85,-12.06,1.67,0.42,9.81
1.44,0.94,-12.13,1.65,0.43,9.98
0.89,1.03,-12.10,1.64,0.10,10.01
1.53,1.23,-12.07,1.66,-0.11,10.34
1.48,1.25,-12.07,1.52,0.17,10.58
0.86,1.10,-12.15,1.33,0.39,10.56
0.11,0.73,-12.14,1.37,0.31,10.54
-0.10,0.45,-12.18,1.68,-0.16,10.32
0.22,0.55,-12.14,1.56,-0.07,10.14
0.13,0.57,-12.16,1.38,0.15,10.12
-0.33,0.41,-12.21,1.39,0.25,10.30
-0.90,0.25,-12.19,1.44,-0.03,10.36
-0.65,0.06,-12.21,1.41,-0.16,10.17
-0.31,-0.15,-12.23,1.24,-0.13,9.99
-0.16,-0.43,-12.30,1.18,-0.00,9.77
-0.26,-0.73,-12.30,1.61,0.14,9.84
-0.65,-0.73,-12.25,1.46,0.06,9.57
-0.59,-0.76,-12.25,1.37,-0.10,9.41
-0.17,-0.80,-12.24,1.44,-0.26,9.47
0.73,-0.70,-12.26,1.49,-0.02,9.63
0.49,-0.63,-12.26,1.49,0.08,9.79
0.17,-0.78,-12.33,1.45,-0.01,9.55
0.39,-0.82,-12.21,1.65,-0.25,9.70
1.46,-0.23,-12.24,1.50,-0.13,9.56
1.37,-0.09,-12.26,1.62,0.14,10.02
0.64,-0.16,-12.32,1.44,0.23,9.99
0.11,-0.53,-12.30,1.44,-0.04,9.90
1.27,-0.45,-12.22,1.79,-0.24,9.79
1.47,-0.11,-12.11,1.72,0.10,9.85
0.72,0.21,-12.17,1.77,0.28,10.04
-0.10,0.35,-12.20,1.72,0.16,9.97
0.32,0.62,-12.12,1.87,-0.34,10.18
0.79,0.65,-12.04,1.72,-0.20,10.14
0.80,0.47,-12.01,1.68,0.01,10.08
0.41,0.43,-12.03,1.69,0.06,9.97
0.24,0.67,-11.97,1.77,-0.22,9.43
0.70,0.74,-11.96,1.79,-0.20,9.42
0.89,0.86,-11.96,1.85,0.04,9.53
0.32,0.90,-11.93,1.73,0.18,9.55
-0.06,0.51,-11.91,1.56,-0.27,9.47
0.59,0.43,-11.86,1.60,-0.27,9.57
0.95,0.40,-11.86,1.45,-0.08,9.63
0.81,0.25,-11.84,1.43,0.21,9.84
-0.30,-0.05,-11.91,1.56,0.01,10.07
-0.36,0.07,-11.83,1.52,-0.15,10.08
-0.04,0.08,-11.83,1.29,-0.23,9.91
0.17,-0.18,-11.81,1.47,-0.05,10.22
-0.72,-0.04,-11.82,1.44,0.12,10.23
-1.20,-0.00,-11.74,1.61,-0.08,10.14
-1.13,0.06,-11.76,1.36,-0.25,9.77
-0.76,0.15,-11.79,1.38,-0.21,9.65
-0.96,0.38,-11.86,1.47,0.13,9.68
-1.59,0.28,-11.83,1.56,0.11,9.63
-1.72,0.19,-11.82,1.42,-0.07,9.47
-1.48,-0.03,-11.81,1.45,-0.24,9.28
-1.10,0.17,-11.72,1.73,-0.13,9.71
-1.49,0.53,-11.73,1.59,-0.03,9.87
-1.61,0.46,-11.68,1.34,0.02,10.09
-1.90,-0.08,-11.69,1.25,-0.08,10.22
-1.46,-0.73,-11.58,1.65,-0.44,10.32
-1.17,-0.60,-11.52,1.57,-0.44,10.11
-0.89,-0.53,-11.50,1.44,-0.31,9.78
-0.52,-0.18,-11.46,1.66,0.05,9.91
-0.92,0.16,-11.48,1.65,0.10,9.87
-1.41,0.38,-11.46,1.60,-0.09,9.90
-1.20,0.52,-11.40,1.48,-0.44,9.76
-0.69,0.44,-11.43,1.45,-0.63,9.71
0.55,0.43,-11.45,1.44,-0.05,9.94
0.05,0.22,-11.41,1.68,0.22,10.23
-0.67,0.27,-11.36,1.51,0.12,10.06
-1.13,0.34,-11.39,1.49,-0.28,9.80
-0.04,0.47,-11.32,1.29,-0.47,9.81
0.18,0.28,-11.41,1.15,-0.08,9.91
-0.19,-0.13,-11.38,1.30,0.24,10.17
-0.95,-0.54,-11.40,1.29,0.24,10.03
-1.41,-0.69,-11.26,1.57,-0.32,9.61
-1.20,-0.46,-11.30,1.53,-0.45,9.25
-0.87,-0.12,-11.23,1.55,-0.37,9.21
-0.54,0.25,-11.27,1.42,-0.10,9.27
-1.36,0.27,-11.24,1.54,0.20,9.61
-1.91,0.08,-11.27,1.47,-0.21,9.37
-1.63,0.00,-11.26,1.45,-0.70,9.16
-0.57,-0.06,-11.22,1.45,-0.91,8.93
1.45,-0.01,-11.29,1.47,-0.05,9.27
0.95,-0.10,-11.23,1.50,0.31,9.50
-0.13,-0.44,-11.24,1.44,0.12,9.41
-0.08,-0.68,-11.20,1.42,-0.46,9.11
2.39,-0.41,-11.22,1.58,-0.45,9.14
2.71,-0.22,-11.14,1.50,0.23,9.46
1.64,-0.26,-11.20,1.39,0.59,9.60
0.24,-0.27,-11.19,1.73,-0.29,9.62
0.78,0.19,-11.13,1.73,-0.71,9.59
1.75,0.76,-11.09,1.56,-0.56,9.68
2.18,1.07,-11.15,1.38,-0.02,9.98
1.47,0.97,-11.19,1.39,0.38,10.33
-0.13,1.00,-11.20,1.59,0.07,10.65
-0.46,1.11,-11.17,1.68,-0.15,10.58
-0.53,1.16,-11.12,1.46,-0.17,10.41
-0.55,1.27,-11.17,1.44,-0.00,10.51
-1.72,1.57,-11.15,1.69,0.26,10.68
-2.47,1.68,-11.09,1.74,0.14,10.53
-2.93,1.67,-11.11,1.53,-0.08,10.15
-2.48,1.38,-11.15,1.59,-0.45,9.67
-2.12,1.27,-11.11,1.51,-0.36,9.74
-1.90,1.16,-11.08,1.38,-0.23,9.67
-2.00,0.68,-11.06,1.41,-0.18,9.75
-1.93,0.09,-11.01,1.29,-0.27,9.63
-1.08,-0.37,-10.90,1.47,-0.37,9.57
-0.85,-0.21,-10.86,1.40,-0.34,9.45
-0.73,-0.10,-10.84,1.39,-0.28,9.45
-0.42,0.08,-10.83,1.42,-0.19,9.44
-0.23,0.54,-10.76,1.52,0.01,9.60
-0.76,0.70,-10.76,1.26,-0.21,9.49
-1.06,0.77,-10.83,1.07,-0.69,9.49
-0.17,0.63,-10.94,1.06,-0.96,9.52
2.52,-0.47,-10.81,1.26,0.01,10.03
2.30,-0.85,-10.59,1.54,0.57,10.21
0.84,-0.66,-10.43,1.78,0.52,10.40
-0.62,0.20,-10.42,1.76,0.09,10.16
-0.53,1.70,-10.44,1.40,-0.52,10.26
-0.27,1.95,-10.50,1.49,-0.19,10.92
-0.84,1.78,-10.49,1.33,0.21,11.28
-1.65,1.03,-10.31,1.12,0.21,10.97
-1.74,-0.30,-9.99,1.41,-0.40,9.87
-1.43,-0.00,-9.98,1.56,-0.46,9.33
-1.28,0.58,-10.00,1.58,-0.25,9.06
-2.24,1.23,-10.06,1.59,0.13,9.20
-2.59,1.31,-9.94,1.45,-0.04,9.21
-2.46,1.17,-9.80,1.42,-0.43,9.13
-1.78,1.14,-9.69,1.45,-0.64,9.13
-0.99,1.25,-9.61,1.31,-0.61,9.01
-0.32,1.62,-9.67,1.42,-0.12,8.97
-0.43,1.88,-9.59,1.44,0.02,8.81
-0.64,2.21,-9.52,1.54,-0.04,8.81
-0.49,2.60,-9.38,1.60,-0.22,8.84
0.52,3.08,-9.14,1.63,-0.38,9.05
0.99,3.38,-8.96,1.53,-0.19,9.18
1.00,3.40,-8.85,1.33,-0.03,9.06
0.97,3.47,-8.74,1.50,-0.07,9.14
1.11,4.56,-8.43,1.63,-0.24,9.31
1.18,5.02,-8.25,1.56,-0.17,9.85
0.75,4.93,-8.27,1.32,0.10,10.37
0.27,4.40,-8.05,1.19,0.28,10.81
-0.64,2.81,-7.74,0.68,-0.14,10.90
-0.60,2.03,-7.54,1.04,-0.22,10.76
-0.57,1.62,-7.33,1.38,-0.20,10.70
-0.88,1.85,-7.19,1.09,-0.08,10.30
-1.70,2.16,-6.89,0.89,-0.14,10.13
-1.31,2.16,-6.71,0.89,-0.03,10.21
-1.28,1.91,-6.43,0.81,0.10,10.22
-1.78,1.73,-6.20,0.95,0.01,10.34
-2.67,2.00,-6.06,0.46,-0.79,9.72
-1.61,2.31,-5.90,0.48,-0.86,9.69
-0.42,2.06,-5.60,0.73,-0.50,10.07
0.09,1.65,-5.32,0.68,0.16,10.50
-2.19,1.07,-4.99,0.73,0.23,9.74
-2.82,1.02,-4.83,0.33,-0.56,8.70
-1.93,1.50,-4.63,0.55,-1.07,8.15
0.06,2.43,-4.50,1.12,-1.11,8.34
1.69,4.23,-4.02,1.12,0.22,9.98
0.56,4.08,-3.85,0.35,0.44,10.42
-0.54,3.35,-3.74,-0.21,0.09,10.34
0.01,1.26,-3.58,0.12,-0.62,9.81
1.18,0.90,-3.42,0.59,-0.52,9.42
1.27,0.93,-3.19,0.87,-0.10,9.06
1.00,1.70,-2.92,1.27,0.28,9.11
-0.16,2.56,-2.75,1.04,0.33,9.07
-1.30,3.67,-2.54,0.26,-0.24,9.50
-0.86,3.11,-2.42,-0.13,-0.48,9.89
-0.33,2.24,-2.30,-0.01,-0.41,10.52
-0.22,1.36,-2.11,0.20,-0.24,10.61
-0.58,0.27,-1.72,0.49,-0.57,9.58
0.07,0.86,-1.54,0.76,-0.58,9.20
0.72,2.00,-1.39,0.83,-0.20,9.31
0.45,3.22,-1.26,0.82,0.38,9.85
-2.64,3.52,-0.93,0.17,-0.09,10.35
-2.19,3.04,-0.76,0.08,-0.99,10.26
-0.32,2.63,-0.52,0.11,-1.23,9.86
1.46,2.55,-0.38,0.16,-0.68,9.56
0.51,2.78,-0.07,0.42,0.64,9.41
-1.03,2.95,-0.01,0.58,0.25,9.33
-1.50,3.28,0.18,0.81,-0.45,9.29
-0.40,3.85,0.42,0.30,-0.84,9.23
1.18,3.16,0.70,-0.20,0.02,10.34
0.33,2.12,0.85,-0.26,0.33,10.59
-0.91,1.26,1.03,-0.07,0.07,10.39
-1.07,0.99,1.21,0.07,-0.49,9.89
0.97,1.46,1.62,0.18,-0.37,9.33
0.89,2.05,1.75,0.04,0.31,9.52
-0.53,2.39,1.92,-0.02,0.58,9.88
-2.08,2.34,1.97,-0.11,0.19,10.00
-0.95,1.88,2.28,-0.42,-0.98,9.69
0.66,1.84,2.39,-0.35,-0.52,9.85
0.62,1.72,2.49,-0.43,0.29,9.97
-0.96,1.59,2.53,-0.35,0.67,9.97
-2.93,1.42,2.66,-0.29,-0.66,9.27
-1.63,1.78,2.82,0.02,-1.10,9.38
0.05,2.29,3.08,-0.29,-0.64,9.60
0.36,2.46,3.10,-0.55,0.30,10.04
-2.89,1.17,3.20,-0.83,0.27,10.01
-3.39,0.55,3.27,-0.51,-0.60,9.76
-2.46,0.53,3.52,-0.05,-1.01,9.71
-1.16,0.97,3.67,-0.24,-0.77,9.53
-0.79,1.13,3.95,-0.52,0.34,9.85
-1.95,0.59,4.00,-0.56,0.39,9.86
-2.70,0.40,4.13,-0.34,-0.18,9.80
-2.39,0.63,4.22,-0.36,-0.83,9.58
-0.16,0.60,4.49,-0.33,-0.57,9.67
0.19,0.68,4.58,-0.48,-0.03,9.91
-0.58,0.77,4.69,-0.38,0.29,10.13
-1.55,0.85,4.80,-0.19,0.06,10.38
-0.96,1.10,5.06,-0.45,-0.77,9.89
-0.02,1.43,5.16,-0.32,-0.53,10.08
-0.08,1.65,5.22,-0.43,-0.00,10.07
-0.91,1.60,5.31,-0.35,0.27,10.13
-1.95,1.58,5.59,-0.18,-0.31,9.79
-1.50,1.85,5.80,-0.12,-0.61,9.72
-0.79,2.21,5.88,-0.30,-0.51,9.60
-0.57,2.40,6.00,-0.46,-0.09,9.65
-1.93,1.88,6.13,-0.55,-0.16,9.57
-1.66,1.52,6.28,-0.62,-0.52,9.32
-0.83,1.28,6.36,-0.45,-0.65,9.16
-0.20,1.25,6.45,-0.54,-0.39,9.09
-0.58,1.03,6.57,-0.61,-0.23,8.97
-0.29,0.95,6.73,-0.55,-0.31,9.09
-0.01,0.99,6.79,-0.69,-0.36,9.01
0.37,1.21,6.81,-0.76,-0.23,9.09
-0.07,1.25,6.81,-0.87,-0.23,9.18
0.00,1.26,6.87,-0.81,-0.40,9.33
0.73,1.32,6.93,-0.73,-0.46,9.44
1.24,1.18,6.98,-0.82,-0.18,9.49
0.42,0.90,7.10,-0.79,0.10,9.83
-0.22,1.01,7.06,-0.91,-0.17,9.80
-0.20,1.10,7.03,-0.90,-0.51,9.92
0.29,1.03,7.09,-0.78,-0.52,10.24
0.69,0.29,7.18,-1.10,0.05,10.16
0.14,0.05,7.14,-0.88,0.19,10.07
-0.59,0.10,7.09,-0.80,-0.04,9.84
-0.90,0.41,7.08,-0.75,-0.42,9.89
0.27,0.31,7.01,-1.09,-0.78,9.86
1.18,0.08,7.01,-0.95,-0.30,10.23
0.97,0.06,6.98,-1.02,0.29,10.26
-0.23,-0.07,6.86,-1.23,0.38,10.17
-1.04,-0.76,6.72,-0.81,-0.89,10.00
0.35,-0.67,6.81,-0.71,-1.06,9.95
1.83,-0.27,6.80,-0.63,-0.46,10.11
1.61,-0.08,6.73,-0.87,0.41,10.31
-1.56,-0.45,6.65,-0.87,0.16,10.34
-1.69,-0.44,6.68,-0.69,-0.63,9.91
-0.70,-0.29,6.71,-0.48,-1.07,9.52
0.87,0.15,6.82,-0.52,-0.79,9.35
1.08,0.41,6.69,-0.77,0.34,9.45
-0.11,0.24,6.66,-0.72,0.32,9.40
-0.75,0.19,6.63,-0.51,-0.26,9.31
-0.09,0.33,6.70,-0.42,-0.78,9.12
2.12,0.48,6.74,-0.76,-0.44,9.05
2.17,0.48,6.67,-0.86,0.16,9.37
1.20,0.33,6.54,-0.79,0.43,9.66
-0.10,0.04,6.45,-0.64,0.14,9.83
0.68,-0.47,6.55,-0.69,-0.95,9.39
2.13,-0.26,6.61,-0.50,-0.59,9.72
2.28,-0.00,6.59,-0.50,0.12,10.06
1.09,0.19,6.59,-0.84,0.57,10.30
-1.17,-0.27,6.42,-0.80,-0.28,10.28
-0.61,-0.22,6.45,-0.55,-0.84,10.21
0.61,0.19,6.54,-0.46,-0.74,10.18
1.16,0.42,6.65,-0.62,-0.12,10.26
-0.89,0.07,6.53,-0.82,0.31,10.43
-1.59,-0.01,6.51,-0.74,-0.25,10.19
-1.13,0.09,6.50,-0.55,-0.80,10.02
-0.04,0.24,6.55,-0.56,-0.84,9.69
0.92,0.52,6.55,-0.53,0.07,9.76
0.21,0.54,6.57,-0.62,0.32,9.72
-0.76,0.45,6.51,-0.72,0.04,9.64
-0.92,0.56,6.49,-0.52,-0.52,9.73
1.07,0.40,6.52,-0.89,-0.73,9.59
1.73,0.12,6.54,-0.91,-0.15,9.86
1.17,-0.19,6.47,-0.78,0.33,10.10
0.05,-0.57,6.43,-0.90,0.38,10.03
-0.38,-1.36,6.50,-0.65,-0.65,9.71
0.57,-1.20,6.63,-0.34,-0.69,9.82
1.26,-0.38,6.71,-0.43,-0.25,9.97
0.75,0.08,6.69,-0.76,0.29,9.91
-1.05,0.12,6.67,-0.71,0.06,9.94
-1.26,0.57,6.70,-0.58,-0.27,9.65
-0.96,1.01,6.78,-0.52,-0.57,9.56
-0.44,1.18,6.68,-0.77,-0.55,9.37
-0.17,0.99,6.73,-0.72,-0.08,9.70
-0.67,1.13,6.69,-0.77,0.09,9.92
-1.19,0.72,6.62,-1.00,-0.06,9.79
-1.19,0.05,6.56,-1.00,-0.32,9.75
-0.15,-0.45,6.52,-0.71,-0.57,9.35
0.36,-0.31,6.54,-0.66,-0.33,9.42
0.23,-0.10,6.47,-0.58,0.01,9.68
-0.57,-0.06,6.48,-0.81,0.15,9.72
-0.75,-0.20,6.48,-0.73,-0.58,10.07
-0.03,-0.20,6.50,-0.71,-0.58,10.08
0.36,0.02,6.54,-0.67,-0.30,10.16
0.22,0.25,6.52,-0.80,0.04,10.11
-0.89,0.29,6.45,-0.66,0.01,10.21
-1.13,0.53,6.52,-0.44,-0.29,10.42
-0.94,0.83,6.55,-0.54,-0.43,10.32
-0.72,0.92,6.59,-0.64,-0.37,10.24
-0.90,0.65,6.55,-0.87,-0.06,10.03
-1.17,0.44,6.50,-0.83,-0.01,10.14
-1.67,0.11,6.44,-0.76,-0.11,10.21
-1.97,-0.32,6.46,-0.73,-0.41,9.93
-0.67,-0.78,6.60,-0.61,-0.74,9.48
0.08,-0.74,6.63,-0.73,-0.35,9.47
0.05,-0.70,6.61,-0.82,0.07,9.52
-0.63,-0.91,6.57,-0.69,0.15,9.51
-0.92,-0.96,6.67,-0.63,-0.55,9.11
-0.11,-0.60,6.74,-0.44,-0.72,9.22
0.57,-0.22,6.80,-0.64,-0.49,9.34
0.59,-0.00,6.82,-0.93,-0.06,9.56
-0.55,-0.57,6.70,-0.98,-0.07,9.90
-0.52,-0.84,6.77,-0.80,-0.33,9.81
-0.02,-0.88,6.83,-0.85,-0.53,9.45
0.49,-0.90,6.75,-0.88,-0.51,9.11
0.96,-0.31,6.74,-0.61,-0.21,9.26
0.89,0.06,6.81,-0.70,-0.02,9.43
0.50,0.10,6.76,-0.90,-0.03,9.44
0.40,-0.05,6.68,-0.93,-0.16,9.41
0.75,0.18,6.63,-0.76,-0.45,9.50
1.09,0.36,6.61,-0.71,-0.25,9.57
1.03,0.22,6.64,-0.77,0.01,9.73
-0.32,0.21,6.61,-0.44,0.02,10.15
-0.70,0.37,6.60,-0.77,-0.33,9.92
-0.37,0.37,6.54,-0.81,-0.52,10.00
0.13,0.22,6.55,-0.74,-0.40,10.23
0.24,-0.03,6.58,-0.86,-0.11,10.17
-0.70,-0.27,6.62,-0.53,0.05,10.19
-1.15,-0.17,6.64,-0.59,-0.24,9.94
-1.00,0.09,6.69,-0.53,-0.52,9.99
-0.30,0.24,6.72,-0.78,-0.54,9.91
-0.22,0.01,6.71,-0.58,0.04,10.19
-0.68,0.03,6.75,-0.64,0.05,10.01
-1.03,0.02,6.78,-0.54,-0.17,9.88
-0.91,0.03,6.80,-0.62,-0.44,9.70
0.21,0.29,6.86,-0.55,-0.47,9.62
0.41,0.42,6.85,-0.76,-0.18,9.75
-0.03,0.31,6.78,-0.88,0.02,9.82
-0.50,-0.10,6.76,-0.83,-0.05,9.82
-0.07,-0.79,6.78,-0.86,-0.43,9.55
0.33,-0.94,6.81,-0.61,-0.38,9.73
0.45,-0.91,6.86,-0.68,-0.16,10.04
-0.12,-1.00,6.86,-0.97,-0.04,10.12
-0.63,-1.83,6.78,-1.02,-0.27,10.07
-0.34,-1.92,6.79,-0.84,-0.34,9.89
-0.01,-1.71,6.83,-0.73,-0.29,9.71
-0.16,-1.07,6.82,-0.69,-0.32,9.50
-0.02,-0.67,6.86,-0.69,-0.32,9.41
0.13,-0.16,6.82,-0.73,-0.24,9.50
0.25,0.26,6.81,-0.61,-0.12,9.63
0.05,0.60,6.86,-0.58,-0.09,9.76
-0.33,1.09,6.78,-0.82,-0.43,9.65
0.22,1.18,6.69,-0.73,-0.35,9.75
0.35,1.14,6.66,-0.69,-0.09,9.98
-0.31,0.99,6.68,-0.69,0.09,10.18
-1.30,0.26,6.69,-0.69,-0.27,9.99
-0.98,0.07,6.73,-0.57,-0.40,9.92
-0.58,0.08,6.72,-0.88,-0.22,9.59
-1.40,-0.46,6.69,-0.50,0.12,9.84
-1.94,-0.48,6.66,-0.68,-0.03,9.51
-2.02,-0.38,6.76,-0.50,-0.35,9.54
-1.66,-0.21,6.83,-0.43,-0.54,9.52
-1.09,-0.11,6.82,-0.74,-0.37,9.33
-1.39,0.18,6.86,-0.81,0.03,9.84
-2.05,-0.02,6.81,-0.75,-0.16,9.90
-1.98,-0.03,6.88,-0.59,-0.55,9.83
-1.25,0.09,6.97,-0.64,-0.77,9.41
0.43,0.70,7.02,-0.62,-0.13,9.67
-0.24,0.70,7.00,-0.85,0.18,9.83
-1.09,0.64,6.92,-0.73,0.07,10.12
-1.37,0.39,6.92,-0.79,-0.45,9.96
0.84,-0.19,7.04,-0.70,-0.71,9.48
1.51,-0.14,7.08,-0.59,-0.22,9.58
0.95,0.20,7.00,-0.58,0.28,9.91
-0.27,0.37,6.96,-0.86,0.28,9.89
-0.48,-0.23,6.90,-0.86,-0.80,10.21
0.63,-0.40,6.98,-0.93,-0.78,10.11
1.31,-0.51,6.97,-0.83,-0.28,10.30
0.88,-0.56,6.89,-0.93,0.26,10.23
-1.06,-0.90,6.79,-0.98,-0.08,9.96
-1.03,-0.82,6.73,-0.85,-0.55,9.88
-0.47,-0.79,6.76,-0.83,-0.73,9.81
0.21,-0.71,6.80,-0.85,-0.46,9.96
-0.37,-0.95,6.83,-1.03,0.29,9.81
-1.34,-1.04,6.74,-0.83,0.07,9.80
-1.60,-0.88,6.76,-0.76,-0.40,9.46
-0.94,-0.61,6.84,-0.64,-0.78,9.31
0.61,-0.11,6.90,-0.74,-0.29,9.26
0.40,-0.01,6.93,-0.66,0.09,9.44
-0.31,0.13,6.92,-0.71,0.16,9.45
-0.92,0.17,6.93,-0.75,-0.23,9.28
0.45,0.46,7.04,-0.65,-0.79,9.28
1.41,0.42,7.11,-0.67,-0.45,9.39
1.37,0.21,7.15,-0.62,0.01,9.63
0.70,0.02,7.15,-0.74,0.11,9.40
0.63,0.13,7.25,-0.52,-0.50,9.12
1.49,0.27,7.29,-0.57,-0.66,9.08
2.11,0.39,7.32,-0.54,-0.40,9.42
2.17,0.47,7.38,-0.57,-0.10,9.72
1.42,-0.00,7.39,-0.86,-0.05,10.02
1.40,-0.11,7.41,-0.71,-0.27,10.28
1.35,-0.20,7.39,-0.85,-0.38,10.27
1.60,-0.19,7.40,-0.80,-0.35,10.38
1.12,-0.19,7.46,-0.75,0.14,10.46
0.48,-0.03,7.47,-0.80,0.17,10.64
-0.13,0.02,7.53,-0.82,-0.02,10.61
-0.42,-0.10,7.49,-0.89,-0.24,10.50
-0.50,-0.29,7.57,-0.91,-0.17,10.12
-0.61,-0.46,7.51,-0.92,-0.01,10.11
-1.05,-0.65,7.53,-0.92,0.02,10.01
-1.62,-0.74,7.50,-0.76,-0.13,9.94
-1.50,-0.71,7.57,-1.06,-0.57,9.41
-0.82,-0.77,7.56,-0.77,-0.64,9.45
-0.31,-0.56,7.59,-0.50,-0.44,9.58
-0.15,-0.11,7.55,-0.88,-0.18,9.27
-0.29,-0.02,7.49,-0.71,-0.37,9.25
0.09,0.23,7.39,-0.70,-0.50,9.20
0.77,0.56,7.50,-0.80,-0.52,9.20
1.29,0.60,7.55,-0.81,-0.38,9.42
1.38,0.34,7.52,-0.87,-0.07,9.69
1.12,0.40,7.46,-0.74,-0.14,9.68
1.21,0.39,7.48,-0.85,-0.33,9.56
1.67,0.42,7.31,-0.67,-0.20,9.99
1.53,0.63,7.37,-0.74,-0.06,10.26
1.30,0.50,7.40,-0.91,0.12,10.46
0.77,0.15,7.45,-0.92,0.25,10.68
0.04,-0.02,7.45,-0.80,0.20,10.77
-1.31,0.28,7.33,-0.88,-0.22,10.42
-1.46,0.23,7.28,-0.92,-0.37,10.24
-1.33,0.13,7.29,-0.80,-0.22,10.33
-1.40,-0.02,7.41,-0.84,0.03,10.27
-2.83,-0.49,7.52,-0.70,-0.05,10.14
-3.14,-0.53,7.51,-0.81,-0.55,9.67
-2.58,-0.36,7.50,-0.80,-0.82,9.59
-1.46,-0.10,7.59,-0.84,-0.70,9.69
-1.39,-0.60,7.71,-0.75,0.16,9.88
-2.07,-0.79,7.82,-0.59,-0.03,9.76
-2.31,-0.66,7.90,-0.67,-0.50,9.32
-1.48,-0.36,8.05,-0.64,-0.98,9.12
0.84,0.29,8.20,-0.84,-0.31,9.27
0.61,0.27,8.29,-0.81,0.11,9.59
-0.22,0.09,8.36,-0.78,0.20,9.71
-0.70,-0.01,8.51,-0.78,-0.22,9.55
0.77,0.32,8.71,-0.73,-0.83,9.27
1.87,0.51,8.81,-1.01,-0.45,9.28
1.88,0.40,8.83,-0.98,0.12,9.70
1.04,0.21,8.89,-0.87,0.39,9.98
-0.11,-0.23,9.06,-1.02,-0.46,9.29
0.73,-0.26,9.07,-0.99,-0.76,9.04
1.86,-0.05,9.11,-1.01,-0.52,9.14
2.24,0.15,9.12,-0.86,-0.00,9.62
0.26,-0.09,9.26,-1.23,0.34,10.18
-0.32,-0.49,9.25,-1.18,-0.17,10.30
0.06,-0.59,9.31,-1.14,-0.60,10.37
0.66,-0.47,9.33,-1.14,-0.61,10.30
0.36,-0.48,9.35,-1.28,0.30,10.30
-0.73,-0.67,9.26,-1.02,0.28,10.42
-1.54,-0.69,9.28,-1.00,-0.05,10.39
-1.11,-0.37,9.31,-1.09,-0.66,10.19
-0.56,-0.31,9.38,-1.32,-0.45,10.12
-0.37,-0.34,9.33,-1.18,-0.03,10.13
-0.97,-0.46,9.29,-0.85,0.38,10.35
-1.78,-0.43,9.36,-1.07,0.31,9.88
-1.90,-0.48,9.37,-0.81,-0.79,9.18
-0.60,-0.25,9.38,-1.05,-0.89,8.64
0.57,-0.08,9.36,-0.87,-0.52,8.79
1.08,0.10,9.39,-0.80,-0.02,9.02
-0.07,-0.03,9.48,-0.72,-0.09,9.10
0.20,0.12,9.54,-0.79,-0.57,8.89
1.20,0.31,9.52,-0.92,-0.78,8.86
2.24,0.50,9.47,-0.88,-0.47,9.27
1.61,0.38,9.47,-0.94,0.44,10.01
0.72,0.05,9.53,-1.00,0.29,10.10
0.38,-0.14,9.61,-0.80,-0.15,10.14
0.77,0.12,9.59,-0.70,-0.38,10.23
0.67,0.66,9.54,-1.13,0.06,10.49
-0.14,0.31,9.44,-1.28,0.21,10.70
-0.83,-0.23,9.43,-1.19,-0.06,10.76
-0.92,-0.61,9.45,-0.93,-0.36,10.69
-0.14,-0.62,9.57,-0.92,-0.24,10.05
-0.47,-0.48,9.61,-0.92,-0.14,10.02
-0.81,-0.07,9.54,-0.98,-0.13,10.05
-1.02,0.22,9.47,-1.00,-0.19,10.02
-0.81,0.35,9.47,-0.96,-0.21,9.76
-0.93,0.42,9.49,-0.89,-0.23,9.55
-0.86,0.69,9.51,-0.87,-0.34,9.40
-0.58,0.89,9.45,-1.09,-0.39,9.24
0.20,0.55,9.35,-1.22,-0.18,9.58
-0.00,0.11,9.34,-1.22,-0.01,9.80
-0.33,-0.32,9.32,-1.26,-0.08,9.74
-0.30,-0.75,9.31,-1.16,-0.24,9.68
0.34,-0.99,9.33,-1.13,-0.25,9.54
0.49,-0.91,9.37,-1.09,-0.05,9.83
0.16,-0.86,9.39,-1.14,0.06,9.96
-0.48,-0.94,9.36,-1.18,0.02,10.02
-0.54,-0.93,9.37,-1.24,-0.37,9.53
-0.04,-0.83,9.38,-1.09,-0.30,9.56
0.10,-0.61,9.41,-0.98,-0.13,9.72
-0.29,-0.48,9.39,-1.11,-0.01,9.76
-0.58,-0.58,9.50,-0.96,-0.17,9.81
-0.49,-0.63,9.55,-1.07,-0.25,9.52
-0.33,-0.50,9.56,-0.97,-0.36,9.57
-0.07,-0.22,9.53,-1.00,-0.33,9.78
-0.32,-0.42,9.54,-0.98,-0.20,10.15
-0.22,-0.76,9.62,-1.10,-0.20,9.84
-0.16,-1.12,9.60,-1.04,-0.24,9.67
-0.11,-1.01,9.57,-0.78,-0.21,9.72
-0.16,-0.25,9.56,-0.97,-0.33,9.70
0.17,-0.38,9.62,-1.06,-0.32,9.71
0.47,-0.56,9.54,-0.96,-0.15,9.86
0.44,-0.47,9.60,-0.71,0.07,9.84
-0.37,0.19,9.58,-1.07,-0.12,9.48
-0.25,0.09,9.51,-1.23,-0.46,9.38
0.43,-0.05,9.45,-0.95,-0.61,9.73
0.99,-0.08,9.47,-0.88,-0.39,9.99
0.39,-0.35,9.45,-1.09,0.19,10.50
-0.31,-0.72,9.44,-1.07,0.15,10.59
-0.59,-0.89,9.55,-1.07,-0.07,10.49
-0.72,-0.93,9.55,-1.02,-0.28,10.12
-0.38,-0.54,9.52,-0.84,-0.31,9.61
-0.34,-0.09,9.47,-0.97,-0.18,9.35
-0.44,0.23,9.53,-0.90,-0.12,9.28
-0.27,0.40,9.58,-0.86,-0.13,9.24
-0.18,0.79,9.70,-0.73,-0.30,9.33
-0.04,1.08,9.67,-0.86,-0.35,9.31
0.17,1.20,9.63,-1.11,-0.35,9.29
0.43,1.14,9.56,-1.16,-0.24,9.58
0.23,0.23,9.57,-1.12,-0.06,9.90
-0.03,-0.28,9.58,-1.05,-0.17,9.86
-0.03,-0.68,9.60,-1.18,-0.26,9.63
0.27,-0.92,9.61,-1.09,-0.30,9.83
0.25,-1.35,9.63,-1.28,0.06,9.94
-0.17,-1.45,9.58,-1.00,0.09,10.10
-0.68,-1.40,9.66,-0.91,-0.04,9.99
-0.65,-1.10,9.69,-1.02,-0.27,9.83
-0.20,-0.49,9.76,-0.94,-0.32,10.16
-0.06,-0.18,9.68,-1.11,-0.16,10.11
-0.26,-0.11,9.76,-1.11,-0.08,10.04
-0.49,0.02,9.74,-0.92,-0.11,10.17
-0.58,0.43,9.76,-0.98,-0.28,9.91
-0.47,0.58,9.74,-1.00,-0.33,9.91
-0.36,0.47,9.76,-1.18,-0.36,9.73
-0.19,0.22,9.70,-1.15,-0.30,9.72
-0.17,-0.03,9.73,-0.91,0.02,9.75
-0.58,-0.24,9.72,-1.10,-0.09,9.46
-0.64,-0.39,9.72,-1.03,-0.40,9.35
-0.02,-0.40,9.69,-1.05,-0.58,9.30
1.26,-0.36,9.71,-0.96,-0.01,9.73
0.60,-0.54,9.74,-0.98,0.28,9.84
-0.30,-0.58,9.76,-0.90,0.08,9.92
-0.47,-0.38,9.81,-0.93,-0.50,9.92
1.37,-0.02,9.89,-1.14,-0.56,10.12
1.54,-0.13,9.87,-1.17,-0.01,10.40
0.58,-0.33,9.81,-1.16,0.41,10.36
-0.48,-0.62,9.91,-0.98,0.17,10.13
0.52,-0.36,10.02,-0.86,-0.74,9.12
1.69,0.21,10.07,-0.85,-0.55,9.09
1.84,0.70,9.99,-1.01,0.08,9.36
-0.37,0.49,10.02,-1.10,0.15,9.94
-0.46,0.14,10.10,-1.10,-0.38,10.07
0.34,-0.02,10.23,-1.05,-0.72,9.99
1.09,-0.15,10.22,-1.03,-0.49,9.88
1.20,-0.07,10.31,-1.11,-0.03,10.07
-0.56,-0.27,10.16,-1.24,0.13,10.19
-0.81,-0.55,10.27,-1.13,-0.25,10.17
-0.47,-0.74,10.32,-0.92,-0.47,9.91
0.05,-0.81,10.48,-0.91,-0.45,9.76
0.24,-0.62,10.43,-1.28,0.09,9.59
-0.19,-0.85,10.41,-1.39,0.11,9.64
-0.50,-1.17,10.34,-1.32,-0.07,9.46
-0.29,-1.46,10.42,-1.06,-0.37,9.40
1.00,-1.20,10.49,-1.05,-0.53,9.05
1.41,-0.91,10.55,-1.05,-0.26,9.28
1.43,-0.59,10.48,-1.21,0.06,9.51
0.86,-0.50,10.46,-1.26,0.09,9.80
0.57,-0.59,10.44,-1.05,-0.46,10.13
1.20,-0.46,10.50,-0.99,-0.52,10.07
1.67,-0.23,10.48,-1.08,-0.22,9.98
1.36,-0.06,10.48,-1.05,0.10,9.95
0.25,0.36,10.45,-0.87,0.22,10.01
-0.10,0.72,10.47,-0.72,-0.04,10.03
-0.12,1.00,10.48,-0.83,-0.22,9.83
0.14,1.34,10.53,-0.97,-0.20,9.92
-0.14,1.29,10.46,-1.07,-0.07,10.06
-0.36,1.11,10.40,-1.14,0.05,10.30
-0.76,0.57,10.41,-1.21,0.05,10.27
-1.21,-0.12,10.37,-1.16,-0.13,10.09
-0.71,-0.48,10.46,-1.00,-0.52,9.71
-0.31,-0.56,10.40,-1.07,-0.37,9.87
-0.19,-0.64,10.37,-1.26,-0.11,10.07
-0.56,-0.99,10.39,-1.40,0.06,9.97
-0.85,-1.21,10.40,-0.89,-0.23,9.86
-0.75,-0.71,10.46,-0.91,-0.47,9.66
-0.22,-0.09,10.44,-1.07,-0.52,9.76
0.29,0.32,10.43,-1.22,0.10,10.36
-0.27,0.31,10.39,-1.28,0.30,10.50
-1.01,0.27,10.36,-1.21,0.12,10.29
-1.46,0.18,10.28,-1.13,-0.28,9.84
-1.15,0.25,10.36,-1.01,-0.66,9.64
0.54,0.44,10.39,-1.19,-0.22,9.63
0.28,0.15,10.39,-1.18,0.33,9.88
-0.82,-0.25,10.31,-1.21,0.44,9.87
-1.87,-0.62,10.30,-1.29,0.01,9.54
-0.64,-0.85,10.29,-0.99,-0.85,9.27
0.54,-0.70,10.37,-1.00,-0.44,9.40
0.65,-0.68,10.38,-1.14,0.19,9.64
-0.43,-0.83,10.29,-1.32,0.47,9.77
-1.66,-1.31,10.18,-1.32,-0.50,9.50
-0.79,-1.19,10.21,-1.11,-0.79,9.40
0.31,-0.95,10.24,-0.96,-0.66,9.39
0.73,-0.75,10.23,-1.06,-0.23,9.47
-0.12,-0.61,10.12,-1.22,0.24,9.75
-0.71,-0.55,10.08,-0.98,0.06,10.08
-0.98,-0.40,10.07,-1.05,-0.36,9.93
-0.47,-0.32,10.11,-1.07,-0.66,9.80
0.68,-0.23,10.14,-1.08,-0.14,9.98
0.34,-0.22,10.07,-1.12,0.29,10.22
-0.54,-0.35,10.02,-1.07,0.35,10.20
-1.22,-0.86,10.07,-0.79,-0.59,9.73
-0.16,-0.39,10.15,-0.66,-0.82,9.51
0.73,0.12,10.20,-0.75,-0.60,9.49
1.00,0.48,10.16,-1.01,-0.11,9.62
0.62,0.53,10.09,-1.31,0.24,9.71
-0.58,-0.00,9.95,-0.91,-0.00,9.96
-0.70,-0.06,9.95,-0.89,-0.44,9.68
-0.25,0.02,9.96,-0.94,-0.73,9.49
0.60,0.12,9.92,-1.14,-0.63,9.41
1.01,-0.24,9.84,-1.20,0.30,10.02
0.17,-0.54,9.71,-1.23,0.45,10.06
-0.83,-0.90,9.72,-1.04,0.09,9.86
-0.87,-0.91,9.71,-0.77,-0.51,9.64
1.21,-0.29,9.80,-1.03,-0.54,9.54
1.46,-0.22,9.79,-0.99,0.17,10.16
0.36,-0.41,9.79,-1.22,0.66,10.27
-1.23,-0.76,9.76,-1.23,0.38,10.05
-0.82,-0.59,9.82,-0.74,-1.01,9.29
0.70,0.03,9.90,-0.84,-0.84,9.35
1.33,0.55,9.91,-0.93,-0.17,9.73
0.67,0.50,9.82,-1.11,0.39,10.03
-1.20,0.08,9.75,-0.88,-0.35,9.82
-0.25,0.29,9.75,-0.84,-0.83,9.38
1.24,0.69,9.78,-0.83,-0.82,9.25
2.15,0.88,9.73,-1.03,-0.21,9.45
0.51,0.24,9.42,-1.27,0.52,10.14
-0.61,-0.69,9.41,-1.25,0.12,10.15
-0.63,-1.32,9.44,-1.16,-0.45,10.05
0.07,-1.60,9.45,-1.04,-0.68,9.83
0.74,-1.71,9.48,-1.13,0.12,10.06
-0.18,-1.80,9.45,-1.18,0.38,10.42
-1.28,-1.96,9.38,-1.14,0.18,10.52
-1.69,-1.92,9.36,-0.97,-0.25,10.19
-0.17,-1.06,9.46,-0.83,-0.55,9.57
0.33,-0.30,9.47,-0.84,-0.16,9.70
-0.10,0.19,9.45,-0.80,0.16,9.96
-0.93,0.41,9.37,-1.08,0.13,9.93
-0.70,0.17,9.21,-1.02,-0.71,9.61
0.34,0.10,9.15,-1.03,-0.72,9.32
1.10,0.07,9.11,-1.05,-0.41,9.25
0.67,-0.25,8.97,-0.91,-0.00,9.47
0.52,-0.44,8.96,-0.91,-0.26,9.54
0.94,-0.44,8.94,-0.85,-0.49,9.69
1.70,-0.42,8.89,-1.00,-0.46,9.69
2.05,-0.55,8.81,-1.02,-0.18,9.81
1.24,-0.86,8.67,-1.07,0.23,9.84
0.62,-1.05,8.62,-0.85,-0.11,10.11
0.68,-0.92,8.54,-0.77,-0.40,10.23
1.11,-0.80,8.58,-0.91,-0.37,10.19
0.75,-1.15,8.48,-1.15,0.42,10.56
-0.57,-1.46,8.40,-1.10,0.46,10.54
-1.67,-1.54,8.30,-0.84,0.09,10.42
-1.89,-1.45,8.32,-0.91,-0.39,9.96
-0.50,-1.30,8.24,-0.90,-0.36,9.72
-0.64,-1.37,8.20,-1.03,0.10,9.64
-1.36,-1.50,8.11,-0.97,0.33,9.74
-2.26,-1.63,8.03,-0.98,0.10,9.69
-1.58,-2.01,7.85,-1.00,-0.72,9.21
-0.40,-2.01,7.83,-0.98,-0.49,9.23
-0.06,-2.09,7.74,-1.07,-0.01,9.43
-0.82,-2.22,7.64,-0.82,0.32,9.87
-2.35,-2.43,7.63,-1.05,-0.31,9.85
-1.65,-2.66,7.59,-1.06,-0.66,9.80
-0.74,-2.96,7.56,-0.90,-0.46,9.90
-1.29,-2.95,7.45,-1.07,0.64,10.02
-2.63,-3.45,7.41,-1.26,0.28,9.46
-3.02,-4.25,7.40,-1.02,-0.48,8.97
-2.25,-4.56,7.42,-0.48,-0.72,8.97
-1.17,-3.94,7.41,-0.64,-0.60,8.82
-0.12,-2.88,7.23,-0.76,0.18,9.34
-1.02,-2.58,7.09,-0.48,0.36,10.02
-2.16,-2.28,7.11,-0.62,-0.15,9.99
-2.14,-2.21,7.19,-0.66,-0.95,9.76
1.35,-1.47,6.97,-0.47,-0.74,9.51
1.89,-0.60,6.78,-0.30,-0.10,9.79
1.11,0.14,6.53,-0.37,0.31,10.11
-0.79,0.39,6.07,-0.44,-0.46,10.43
0.12,0.18,6.02,-0.33,-0.91,10.42
1.77,0.22,5.95,-0.20,-0.68,10.61
2.31,0.35,5.80,-0.27,0.03,10.65
1.38,0.42,5.60,-0.41,0.47,10.73
-1.21,0.51,5.23,-0.09,0.05,10.92
-1.60,0.49,5.23,-0.03,-0.35,10.73
-1.21,0.81,5.29,0.11,-0.49,10.61
-0.67,1.12,5.32,0.01,-0.41,10.34
-0.94,1.54,5.20,-0.18,-0.03,10.13
-1.51,1.50,5.08,-0.30,-0.03,9.92
-1.80,1.24,5.09,-0.29,-0.11,9.86
-1.73,0.80,5.08,-0.28,-0.16,9.73
-1.73,-0.18,5.11,-0.52,-0.09,9.22
-1.99,-0.63,5.09,-0.51,-0.12,9.04
-2.04,-0.90,5.04,-0.59,-0.16,8.81
-1.79,-1.05,5.00,-0.55,-0.19,8.72
-1.64,-1.10,5.02,-0.53,0.00,8.85
-1.94,-0.98,5.01,-0.56,-0.00,8.98
-2.17,-0.91,4.99,-0.69,-0.18,9.03
-1.97,-0.97,4.95,-0.86,-0.36,9.00
-1.02,-1.34,4.83,-0.71,-0.25,9.04
-0.96,-1.24,4.77,-0.69,-0.11,9.01
-1.21,-1.26,4.73,-0.82,-0.17,8.78
-1.10,-1.37,4.65,-0.75,-0.39,8.69
0.50,-1.21,4.43,-0.78,-0.57,8.80
1.16,-1.11,4.33,-0.91,-0.29,8.99
1.34,-1.33,4.15,-1.03,-0.14,9.04
1.50,-1.85,3.98,-1.05,-0.16,8.97
2.03,-2.19,3.66,-0.66,-0.33,9.13
2.25,-1.82,3.45,-0.49,-0.37,9.37
2.48,-1.30,3.29,-0.79,-0.35,9.65
2.58,-1.32,3.05,-1.30,-0.29,9.63
3.13,-1.97,2.64,-0.28,0.11,10.82
2.29,-1.44,2.55,-0.04,0.22,10.90
1.18,-0.98,2.46,-0.27,-0.18,10.73
1.24,-0.85,2.20,-0.50,-0.55,10.66
2.12,-0.68,1.95,-0.03,0.12,11.48
1.02,-0.81,1.90,0.09,0.50,11.83
-0.77,-1.28,1.90,0.06,0.59,11.91
-2.44,-1.99,1.86,0.06,0.17,11.59
-2.33,-2.58,1.90,0.35,-0.49,10.80
-1.80,-2.51,1.89,0.24,-0.33,10.44
-1.91,-2.46,1.81,0.21,-0.09,10.18
-2.49,-2.36,1.74,0.54,-0.00,10.10
-2.48,-1.61,1.69,0.52,-0.52,9.54
-1.69,-1.05,1.70,0.34,-0.56,9.42
-1.22,-0.40,1.61,0.55,-0.38,9.87
-1.41,0.26,1.41,0.39,-0.11,10.12
-1.70,0.52,1.08,-0.14,-0.34,9.98
-1.06,-0.12,0.90,-0.29,-0.40,9.59
-0.36,-0.57,0.75,-0.05,-0.31,9.40
-0.14,-0.51,0.52,0.32,-0.18,9.30
-0.40,-0.18,0.19,-0.14,-0.03,8.62
-0.44,-0.34,-0.04,0.02,-0.05,8.79
-0.24,-0.36,-0.19,0.06,-0.10,9.02
-0.12,-0.39,-0.28,-0.05,-0.13,9.10
-0.13,-0.89,-0.56,-0.32,-0.16,9.22
-0.02,-1.26,-0.73,-0.24,-0.17,9.17
0.22,-1.46,-0.77,-0.03,-0.20,9.16
0.33,-1.51,-0.81,0.05,-0.15,8.97
0.25,-0.87,-0.87,0.35,-0.08,8.96
0.10,-0.36,-0.89,0.22,-0.13,9.06
-0.05,0.07,-0.99,0.04,-0.12,9.31
-0.13,0.04,-1.01,-0.10,-0.15,9.61
0.28,-0.87,-1.09,0.04,-0.35,10.24
0.47,-1.09,-1.03,0.24,-0.27,10.43
0.54,-1.15,-1.05,0.05,-0.12,10.16
0.24,-1.26,-1.06,0.13,-0.06,10.14
-0.30,-1.26,-1.18,0.22,-0.21,10.23
-0.29,-1.11,-1.10,0.36,-0.38,10.56
-0.23,-1.15,-1.11,0.09,-0.44,10.50
-0.18,-1.38,-1.13,0.07,-0.33,10.54
-0.18,-1.68,-1.13,0.18,-0.22,10.26
-0.24,-1.61,-1.13,0.19,-0.20,10.18
-0.45,-1.60,-1.15,-0.06,-0.20,9.86
-0.52,-1.98,-1.20,-0.06,-0.27,9.61
0.30,-2.57,-1.27,0.12,-0.34,9.31
0.64,-2.81,-1.19,-0.08,-0.19,8.98
0.70,-3.10,-1.21,-0.06,-0.10,8.97
0.50,-3.09,-1.37,0.05,-0.04,9.09
0.20,-2.35,-1.34,0.51,-0.12,9.65
0.09,-2.09,-1.28,0.16,-0.25,9.77
0.20,-2.01,-1.28,-0.01,-0.27,9.81
0.34,-1.87,-1.28,0.23,-0.24,10.27
-0.25,-0.89,-1.34,0.33,0.04,10.33
-0.67,-0.67,-1.31,0.28,0.01,10.15
-0.96,-0.58,-1.37,0.58,-0.10,10.09
-1.15,0.25,-1.32,0.66,-0.26,9.86
-1.30,0.45,-1.33,0.46,-0.21,9.76
-1.35,0.16,-1.32,0.31,-0.21,9.62
-1.21,-0.19,-1.39,0.48,-0.29,9.72
-1.05,-0.44,-1.34,0.57,-0.35,9.60
-0.46,-0.86,-1.37,0.55,-0.42,9.35
-0.32,-0.89,-1.37,0.56,-0.43,9.30
0.04,-0.73,-1.39,0.44,-0.38,9.30
0.31,-0.78,-1.36,0.39,-0.31,9.43
0.44,-0.97,-1.41,0.42,-0.17,9.60
0.37,-0.71,-1.42,0.41,-0.27,9.59
0.40,-0.52,-1.50,0.24,-0.32,9.52
0.76,-0.57,-1.76,0.20,-0.12,9.94
0.64,-0.63,-1.75,0.15,0.10,10.27
0.09,-0.93,-1.80,0.01,0.15,10.40
-0.55,-1.32,-1.89,0.08,0.02,10.53
-0.76,-1.51,-1.87,0.07,-0.27,10.39
-0.21,-1.34,-1.92,0.21,-0.28,10.33
-0.22,-1.29,-2.01,0.09,0.02,10.22
-0.80,-1.37,-2.09,0.17,0.20,10.26
-1.65,-1.39,-2.12,0.19,-0.04,10.13
-1.28,-1.37,-2.18,0.36,-0.71,9.72
-0.45,-1.25,-2.17,0.43,-0.62,9.70
-0.12,-1.19,-2.18,0.32,-0.23,9.69
-0.37,-1.18,-2.21,0.24,0.09,9.73
-1.39,-1.57,-2.43,0.22,-0.37,9.45
-0.85,-1.57,-2.52,0.46,-0.69,9.48
0.04,-1.58,-2.50,0.36,-0.66,9.37
0.73,-1.81,-2.51,0.22,-0.40,9.37
0.53,-2.17,-2.65,0.30,0.07,9.54
0.05,-2.13,-2.78,0.32,-0.05,9.48
-0.10,-1.96,-2.89,0.38,-0.32,9.58
0.23,-1.91,-3.00,0.26,-0.48,9.42
1.04,-1.80,-2.99,0.54,-0.14,9.99
0.68,-1.84,-3.12,0.29,0.15,9.82
-0.05,-1.87,-3.19,0.55,0.18,10.12
-0.72,-1.70,-3.29,0.50,-0.09,9.96
-0.16,-1.40,-3.41,0.57,-0.55,9.79
0.49,-1.36,-3.50,0.60,-0.25,9.76
0.28,-1.30,-3.54,0.67,0.10,9.86
-0.56,-1.15,-3.54,0.78,0.09,9.85
-0.87,-0.70,-3.69,0.76,-0.60,9.53
-0.06,-0.35,-3.76,0.87,-0.66,9.67
0.52,-0.11,-3.81,0.73,-0.31,9.93
0.34,-0.23,-3.88,0.54,-0.01,10.16
-0.98,-0.96,-4.16,0.58,-0.26,10.21
-0.72,-1.24,-4.25,0.59,-0.68,9.85
0.27,-1.44,-4.39,0.69,-0.69,9.75
1.04,-1.45,-4.44,0.82,-0.27,9.78
-0.15,-1.09,-4.56,0.82,0.33,9.70
-1.00,-0.94,-4.66,0.72,-0.08,9.31
-0.82,-0.73,-4.80,0.79,-0.60,9.20
0.25,-0.42,-4.84,0.84,-0.76,9.20
1.34,0.02,-5.02,0.80,0.04,9.84
0.56,-0.19,-5.09,0.77,0.23,9.83
-0.24,-0.41,-5.16,0.80,-0.02,9.86
-0.34,-0.31,-5.24,0.78,-0.47,9.68
1.09,-0.05,-5.47,0.82,-0.49,9.82
1.31,-0.06,-5.55,0.82,-0.05,10.05
0.62,-0.16,-5.58,0.80,0.27,10.27
-0.39,-0.27,-5.66,0.85,0.12,10.26
-0.12,-0.09,-5.82,0.89,-0.62,9.79
0.71,0.24,-5.91,0.86,-0.54,9.72
0.99,0.45,-6.04,0.86,-0.12,9.87
0.42,0.59,-6.14,0.92,0.22,10.07
-1.06,0.66,-6.33,0.89,-0.27,9.97
-0.66,0.64,-6.38,0.90,-0.59,9.85
0.10,0.59,-6.38,0.80,-0.57,9.91
0.42,0.43,-6.49,0.82,-0.25,10.11
-0.90,-0.33,-6.69,0.61,0.01,10.07
-1.19,-0.76,-6.80,0.73,-0.25,9.81
-0.72,-0.99,-6.74,0.90,-0.50,9.68
-0.04,-0.88,-6.77,0.97,-0.44,9.56
-0.19,-0.59,-6.78,0.95,0.04,9.64
-0.80,-0.41,-6.91,0.90,0.02,9.59
-0.97,-0.21,-6.92,0.84,-0.24,9.53
-0.63,-0.11,-7.00,0.89,-0.49,9.40
0.50,0.18,-7.01,0.88,-0.26,9.52
0.24,0.38,-7.10,1.01,-0.05,9.72
-0.26,0.56,-7.12,0.92,-0.02,9.90
-0.59,0.50,-7.23,0.72,-0.18,9.79
-0.25,0.35,-7.36,0.77,-0.30,10.18
-0.31,0.16,-7.47,0.78,-0.19,10.21
-0.55,-0.08,-7.52,0.82,-0.07,10.27
-0.88,-0.39,-7.61,0.65,-0.11,9.91
-0.77,-0.64,-7.70,1.06,-0.23,9.72
-0.85,-0.48,-7.77,1.02,-0.18,9.55
-1.07,-0.28,-7.83,1.01,-0.11,9.62
-1.25,-0.19,-7.92,0.91,-0.16,9.58
-1.13,-0.47,-7.96,0.91,-0.30,9.67
-0.99,-0.50,-8.06,1.02,-0.36,9.67
-1.00,-0.46,-8.09,1.09,-0.31,9.84
-0.97,-0.24,-8.14,0.98,-0.28,9.85
-1.10,-0.51,-8.23,0.91,-0.21,9.89
-0.95,-0.64,-8.33,1.02,-0.27,9.85
-0.90,-0.64,-8.35,1.08,-0.26,9.81
-0.83,-0.49,-8.43,1.06,-0.23,9.61
-1.01,-0.31,-8.44,1.07,-0.19,9.58
-1.09,-0.06,-8.55,1.21,-0.33,9.64
-0.88,0.13,-8.55,1.46,-0.40,9.91
-0.41,0.27,-8.51,1.14,-0.38,9.84
-0.30,0.22,-8.58,1.09,-0.01,10.05
-0.68,0.06,-8.70,1.03,-0.07,9.90
-1.02,-0.09,-8.80,1.19,-0.22,9.96
-0.92,-0.12,-8.75,1.20,-0.39,9.91
-0.74,-0.19,-8.77,1.26,-0.37,9.92
-0.63,-0.14,-8.74,1.10,-0.40,9.71
-0.52,-0.12,-8.82,1.24,-0.39,9.68
-0.16,0.03,-8.77,1.19,-0.37,9.60
0.15,0.52,-9.02,1.32,-0.20,9.62
0.09,0.78,-9.04,1.23,-0.26,9.65
0.02,0.89,-9.14,1.21,-0.37,9.65
0.92,0.77,-9.16,1.09,-0.50,9.61
1.28,0.71,-9.25,1.17,-0.28,9.76
1.29,0.82,-9.32,1.04,-0.07,9.76
0.68,0.88,-9.55,1.15,0.03,9.82
0.02,0.87,-9.61,1.19,-0.19,9.98
0.50,0.74,-9.74,1.10,-0.67,10.00
1.30,0.38,-9.76,0.90,-0.49,9.99
1.57,-0.17,-9.94,0.80,-0.05,9.92
1.07,-0.66,-9.97,0.99,0.23,10.00
-0.08,-0.86,-10.16,1.30,-0.34,9.37
0.51,-0.49,-10.18,1.32,-0.64,9.12
1.29,-0.08,-10.26,1.33,-0.52,9.13
1.64,0.25,-10.23,1.26,-0.08,9.55
0.01,0.14,-10.44,1.14,0.05,9.84
-0.03,0.03,-10.42,1.08,-0.47,9.61
0.70,-0.10,-10.59,1.13,-0.82,9.31
1.72,0.04,-10.61,1.28,-0.57,9.43
1.35,0.46,-10.86,1.35,0.15,9.56
0.68,0.49,-10.86,1.32,-0.02,9.60
0.62,0.42,-11.00,1.19,-0.41,9.32
1.27,0.36,-11.03,1.34,-0.55,9.44
2.21,0.18,-11.23,1.05,0.00,9.53
1.62,-0.15,-11.29,1.12,0.21,9.76
0.73,-0.52,-11.43,1.30,0.04,9.81
1.02,-0.42,-11.39,1.48,-0.48,9.90
1.33,-0.31,-11.45,1.45,-0.36,10.12
1.09,-0.05,-11.52,1.30,-0.07,10.52
0.40,0.05,-11.67,1.03,0.05,10.64
-0.10,-0.36,-11.75,0.86,-0.06,10.70
0.30,-1.64,-11.97,1.11,-0.44,10.38
0.72,-1.88,-11.93,1.34,-0.35,10.16
0.69,-1.80,-11.99,1.37,-0.25,9.82
0.37,-1.53,-12.11,1.38,-0.14,9.61
0.05,-0.45,-12.26,1.69,-0.08,9.95
-0.12,0.02,-12.24,1.50,-0.02,10.22
-0.54,0.29,-12.32,1.30,-0.13,10.24
-0.67,0.26,-12.47,1.38,-0.58,10.38
-0.11,0.35,-12.64,1.45,-0.56,10.21
0.41,0.45,-12.59,1.57,-0.24,10.29
0.08,0.48,-12.69,1.66,0.07,10.23
-0.78,0.61,-12.80,1.64,0.21,10.09
-1.54,0.90,-12.95,1.73,-0.49,9.66
-0.78,1.05,-12.95,1.72,-0.55,9.59
-0.23,1.13,-12.93,1.80,-0.33,9.61
-0.41,1.24,-12.99,1.92,0.09,9.80
-1.97,1.33,-13.12,1.67,-0.10,9.57
-1.89,1.33,-13.12,1.70,-0.42,9.57
-1.22,1.23,-13.10,1.53,-0.64,9.48
-0.73,0.88,-13.22,1.49,-0.50,9.68
-0.75,-0.37,-13.29,1.30,-0.08,9.77
-0.93,-0.98,-13.32,1.34,-0.17,9.74
-0.84,-1.35,-13.35,1.40,-0.44,9.53
-0.52,-1.45,-13.44,1.46,-0.57,9.31
0.45,-0.98,-13.44,1.61,-0.44,9.46
0.70,-0.60,-13.45,1.57,-0.11,9.65
0.63,-0.22,-13.35,1.56,0.07,9.88
0.06,0.10,-13.47,1.48,0.10,9.90
-0.53,0.74,-13.46,1.59,-0.54,9.87
-0.16,0.99,-13.53,1.62,-0.52,9.89
0.32,1.37,-13.46,1.73,-0.23,10.12
0.34,1.66,-13.51,1.60,0.06,9.99
-1.02,1.53,-13.51,1.69,-0.06,9.78
-1.30,1.59,-13.63,1.69,-0.41,9.62
-1.17,1.78,-13.59,1.76,-0.59,9.70
-0.58,1.86,-13.59,1.64,-0.45,9.81
-0.54,0.72,-13.54,1.38,0.08,9.95
-1.13,0.23,-13.59,1.54,0.05,9.89
-1.66,0.05,-13.60,1.53,-0.23,9.63
-1.49,0.05,-13.68,1.52,-0.51,9.49
-0.42,-0.24,-13.70,1.46,-0.26,9.66
-0.64,-0.47,-13.66,1.48,0.02,9.93
-1.32,-0.61,-13.61,1.38,0.03,10.05
-1.63,-0.74,-13.60,1.43,-0.27,10.03
-0.39,-0.90,-13.62,1.30,-0.74,9.56
0.47,-0.72,-13.58,1.68,-0.50,9.73
0.59,-0.26,-13.55,1.69,-0.06,9.82
0.01,0.26,-13.52,1.63,0.16,9.78
-0.67,0.77,-13.46,1.64,-0.44,9.69
-0.08,1.03,-13.43,1.70,-0.64,9.74
0.49,1.37,-13.42,1.76,-0.53,9.85
0.80,1.71,-13.38,1.68,-0.26,9.87
0.35,1.72,-13.41,1.82,-0.06,9.63
0.21,1.79,-13.37,1.73,-0.15,9.38
0.25,1.80,-13.39,1.71,-0.23,9.15
0.45,1.73,-13.41,1.73,-0.23,9.26
0.22,1.20,-13.48,1.56,-0.07,9.35
-0.13,0.78,-13.51,1.50,-0.17,9.51
-0.27,0.28,-13.55,1.27,-0.27,9.48
-0.06,-0.24,-13.49,1.35,-0.31,9.78
-0.06,-1.08,-13.65,1.15,0.02,10.08
-0.59,-1.53,-13.62,1.21,-0.06,10.18
-1.01,-1.82,-13.66,1.41,-0.26,10.22
-0.98,-1.69,-13.63,1.45,-0.48,10.04
0.05,-0.90,-13.56,1.55,-0.28,10.19
-0.04,-0.54,-13.54,1.34,0.12,10.35
-0.86,-0.43,-13.58,1.24,0.29,10.48
-1.68,-0.43,-13.59,1.38,-0.02,10.46
-1.17,-0.43,-13.55,1.41,-0.94,9.77
0.11,-0.19,-13.53,1.49,-0.87,9.55
0.93,-0.01,-13.52,1.53,-0.32,9.54
-0.26,-0.11,-13.52,1.55,0.32,9.51
-1.14,-0.17,-13.54,1.80,-0.17,9.51
-0.90,0.01,-13.54,1.70,-0.78,9.19
0.30,0.27,-13.54,1.57,-0.94,9.12
1.62,0.41,-13.52,1.54,-0.59,9.29
1.21,-0.03,-13.51,1.55,0.40,9.67
0.16,-0.12,-13.55,1.77,0.18,9.62
-0.40,-0.11,-13.62,1.78,-0.38,9.28
0.40,0.16,-13.57,1.68,-0.83,9.03
2.14,0.57,-13.59,1.68,-0.18,9.62
1.95,0.62,-13.56,1.63,0.21,10.14
0.79,0.36,-13.61,1.72,0.26,10.51
-0.01,0.25,-13.60,1.60,0.15,10.57
-0.35,-0.09,-13.57,1.64,-0.50,10.33
0.11,0.21,-13.61,1.66,-0.40,10.42
0.11,0.42,-13.60,1.69,-0.06,10.54
-0.64,0.30,-13.57,1.62,0.16,10.70
-1.90,-0.06,-13.55,1.71,-0.29,10.43
-1.63,0.05,-13.47,1.80,-0.63,10.20
-0.97,0.43,-13.51,1.67,-0.70,9.89
-0.56,0.60,-13.49,1.65,-0.37,9.77
-0.91,0.63,-13.53,1.64,-0.03,9.49
-1.15,0.55,-13.48,1.63,-0.29,9.12
-0.73,0.56,-13.45,1.52,-0.63,8.78
1.12,0.50,-13.54,1.70,-0.61,8.64
1.73,0.57,-13.49,1.66,-0.32,8.69
1.69,0.61,-13.48,1.70,-0.10,8.82
1.55,0.75,-13.47,1.58,-0.05,8.92
1.36,0.95,-13.50,1.68,-0.21,9.13
1.92,1.43,-13.53,1.55,-0.32,9.69
2.06,1.25,-13.46,1.50,-0.15,10.04
1.96,1.05,-13.45,1.59,0.02,10.49
1.36,0.96,-13.47,1.46,0.07,10.62
0.60,0.62,-13.58,1.20,-0.14,10.47
0.55,0.33,-13.62,1.24,-0.11,10.53
0.35,0.09,-13.63,1.40,0.01,10.56
-0.81,-0.16,-13.59,1.46,-0.05,10.49
-1.20,-0.16,-13.60,1.21,-0.19,10.17
-1.30,-0.19,-13.63,1.30,-0.32,10.17
-1.24,-0.23,-13.68,1.35,-0.29,10.19
-1.21,-0.35,-13.66,1.34,-0.15,10.07
-1.67,-0.60,-13.62,1.56,-0.30,9.72
-1.55,-0.42,-13.56,1.53,-0.44,9.42
-1.15,-0.14,-13.56,1.48,-0.54,9.22
-0.62,0.07,-13.58,1.49,-0.42,9.31
-0.54,-0.15,-13.66,1.45,-0.23,9.56
-0.53,-0.36,-13.62,1.67,-0.35,9.76
-0.06,-0.27,-13.54,1.70,-0.38,9.67
0.51,0.05,-13.45,1.70,-0.11,9.68
0.16,0.33,-13.45,1.64,0.06,9.71
-0.46,0.62,-13.47,1.75,-0.00,9.89
-0.69,0.94,-13.55,1.78,-0.20,10.05
-0.55,0.92,-13.50,1.63,-0.30,9.90
0.04,0.37,-13.42,1.65,-0.12,9.91
-0.25,0.30,-13.36,1.67,0.03,9.77
-0.88,0.46,-13.40,1.70,-0.08,9.69
-1.16,0.63,-13.48,1.74,-0.33,9.50
-0.17,0.58,-13.37,1.66,-0.50,9.56
0.23,0.45,-13.38,1.67,-0.23,9.69
0.08,0.34,-13.32,1.60,0.01,9.78
-0.55,0.27,-13.37,1.47,-0.04,9.64
-0.26,0.27,-13.42,1.60,-0.70,9.41
0.72,0.45,-13.43,1.70,-0.63,9.39
1.23,0.71,-13.38,1.74,-0.20,9.71
0.67,1.01,-13.39,1.60,0.13,9.96
-0.76,1.23,-13.40,1.53,-0.34,10.14
-0.17,1.26,-13.37,1.52,-0.68,10.17
0.73,1.20,-13.39,1.55,-0.54,10.24
1.15,1.25,-13.36,1.53,-0.07,10.38
-0.89,1.19,-13.52,1.57,0.03,10.16
-0.98,1.29,-13.46,1.58,-0.40,9.98
-0.26,1.32,-13.42,1.48,-0.53,9.84
0.39,1.26,-13.41,1.44,-0.21,10.03
-1.17,0.76,-13.56,1.30,0.20,10.25
-2.02,0.33,-13.64,1.07,-0.23,9.91
-1.60,-0.17,-13.66,1.18,-0.66,9.66
-0.57,-0.65,-13.57,1.49,-0.64,9.64
-0.28,-0.79,-13.47,1.48,0.03,9.52
-1.11,-0.74,-13.51,1.46,-0.02,9.27
-1.23,-0.58,-13.55,1.41,-0.36,8.97
-0.46,-0.35,-13.54,1.43,-0.66,8.87
0.93,0.10,-13.50,1.64,-0.25,9.40
0.77,0.18,-13.47,1.43,-0.00,9.56
0.21,0.05,-13.50,1.31,-0.09,9.48
0.26,-0.04,-13.49,1.44,-0.33,9.46
1.18,0.31,-13.49,1.61,-0.36,9.53
1.16,0.59,-13.43,1.79,-0.18,9.86
0.78,0.80,-13.41,1.65,-0.07,10.03
0.44,0.69,-13.39,1.34,-0.07,9.98
0.52,-0.05,-13.42,1.47,-0.10,10.09
0.27,-0.36,-13.40,1.57,-0.19,9.91
0.10,-0.40,-13.41,1.63,-0.36,9.73
0.23,-0.36,-13.41,1.61,-0.47,9.46
1.16,-0.16,-13.32,1.60,-0.04,9.65
0.71,-0.17,-13.30,1.72,0.21,9.97
-0.21,-0.15,-13.32,1.62,0.14,10.07
-0.78,-0.06,-13.28,1.56,-0.38,9.92
0.83,0.29,-13.35,1.49,-0.83,9.76
1.73,0.40,-13.32,1.52,-0.33,9.88
1.50,0.33,-13.29,1.57,0.30,10.14
0.50,0.28,-13.30,1.58,0.38,10.26
-0.77,0.37,-13.37,1.59,-0.51,9.84
0.13,0.51,-13.34,1.48,-0.72,9.82
0.98,0.52,-13.39,1.42,-0.35,10.08
0.85,0.38,-13.38,1.41,0.23,10.42
-1.66,-0.15,-13.45,1.40,0.22,10.57
-2.15,-0.37,-13.46,1.38,-0.39,10.14
-1.51,-0.41,-13.48,1.51,-0.77,9.87
-0.47,-0.16,-13.42,1.64,-0.55,9.81
-1.36,0.42,-13.40,1.64,0.29,9.96
-2.26,0.55,-13.40,1.51,0.12,9.73
-2.38,0.49,-13.40,1.53,-0.38,9.36
-1.65,0.56,-13.34,1.67,-0.74,9.20
-0.28,0.95,-13.33,1.66,-0.41,9.00
-0.23,0.96,-13.35,1.53,-0.18,9.05
-0.37,0.74,-13.38,1.52,-0.17,9.01
-0.28,0.50,-13.37,1.52,-0.33,9.14
0.75,0.25,-13.31,1.67,-0.32,9.59
0.85,0.19,-13.22,1.63,-0.13,9.99
0.50,0.15,-13.17,1.60,-0.06,10.13
0.11,0.14,-13.13,1.62,-0.04,10.36
-0.23,0.13,-13.14,1.48,-0.07,10.25
-0.50,0.30,-13.13,1.72,-0.05,10.54
-0.93,0.67,-13.10,1.58,-0.04,10.35
-1.39,0.70,-13.00,1.58,-0.07,10.33
-1.63,0.55,-12.89,1.45,-0.23,10.00
-1.73,0.65,-12.84,1.64,-0.27,9.95
-1.67,0.97,-12.80,1.60,-0.29,9.79
-1.66,1.11,-12.85,1.41,-0.28,9.59
-1.44,0.67,-12.84,1.43,-0.25,9.46
-1.41,0.53,-12.84,1.46,-0.39,9.36
-1.15,0.49,-12.83,1.45,-0.54,9.30
-0.61,0.46,-12.86,1.43,-0.56,9.32
0.19,0.22,-12.86,1.12,-0.11,9.42
-0.09,-0.11,-12.94,1.12,-0.01,9.49
-0.52,-0.38,-13.00,1.32,-0.11,9.67
-0.56,-0.35,-13.05,1.50,-0.44,9.81
0.41,0.17,-12.93,1.30,-0.36,10.08
0.59,0.03,-12.92,1.16,-0.01,10.23
0.13,-0.16,-12.92,1.32,0.25,10.56
-0.72,-0.03,-12.90,1.40,0.15,10.51
-1.17,0.42,-12.97,1.39,-0.56,10.03
-0.43,0.47,-12.97,1.43,-0.57,9.86
0.07,0.51,-12.86,1.55,-0.26,9.91
-0.11,0.57,-12.77,1.67,0.04,9.93
-1.45,0.69,-12.74,1.42,-0.14,9.45
-1.47,0.75,-12.80,1.59,-0.61,9.31
-0.71,0.77,-12.73,1.67,-0.78,9.25
0.60,0.71,-12.61,1.64,-0.11,9.41
0.05,0.59,-12.59,1.65,0.15,9.49
-0.54,0.63,-12.56,1.50,-0.01,9.39
-0.77,0.59,-12.55,1.55,-0.36,9.40
-0.23,0.53,-12.50,1.48,-0.59,9.35
0.99,0.12,-12.49,1.55,-0.17,9.75
0.62,0.04,-12.44,1.45,0.12,9.82
-0.05,-0.12,-12.40,1.32,0.07,9.72
-0.42,-0.24,-12.39,1.42,-0.19,9.79
0.05,-0.26,-12.31,1.48,-0.43,10.01
0.21,-0.24,-12.31,1.39,-0.24,10.25
0.09,-0.35,-12.29,1.13,-0.06,10.24
-0.54,-0.79,-12.18,1.34,-0.00,10.23
-0.80,-0.78,-12.15,1.38,-0.27,9.72
-0.63,-0.53,-12.08,1.51,-0.54,9.35
-0.13,0.12,-12.00,1.63,-0.69,9.19
0.52,0.87,-12.04,1.60,-0.53,9.07
0.93,1.39,-11.92,1.35,0.10,9.32
0.31,1.27,-11.96,1.42,0.03,9.41
-0.12,1.42,-11.96,1.57,-0.38,9.47
0.39,1.71,-11.95,1.47,-0.80,9.27
2.54,1.66,-11.85,1.41,-0.34,9.48
2.41,1.63,-11.88,1.47,0.21,9.74
1.24,1.62,-11.90,1.58,0.45,10.04
0.10,1.62,-11.88,1.45,0.08,10.04
1.03,1.34,-11.87,1.41,-0.82,10.00
2.20,1.10,-11.71,1.27,-0.53,10.07
2.27,0.62,-11.67,1.22,0.06,10.28
1.40,0.24,-11.67,1.28,0.35,10.54
-0.07,-0.01,-11.71,1.39,-0.50,10.05
0.98,0.30,-11.52,1.62,-0.77,10.09
1.94,0.67,-11.38,1.62,-0.48,10.18
2.11,1.20,-11.22,1.72,0.16,10.52
-0.42,2.28,-11.05,1.56,0.26,10.48
-1.23,2.96,-11.00,1.63,-0.23,10.23
-0.88,3.70,-10.96,1.68,-0.64,10.11
-0.12,4.24,-10.86,1.67,-0.52,10.06
-0.52,4.20,-10.73,1.39,0.25,10.09
-1.56,3.81,-10.66,1.39,0.21,9.99
-2.14,3.42,-10.57,1.34,-0.30,9.78
-1.75,3.02,-10.48,1.37,-0.74,9.55
0.34,2.15,-10.26,1.16,-0.29,9.55
0.11,1.63,-10.21,1.29,0.22,9.84
-0.74,1.21,-10.13,1.14,0.34,9.83
-1.48,0.85,-9.99,1.08,-0.08,9.54
-0.17,0.98,-9.70,1.36,-0.68,9.37
0.62,1.42,-9.47,1.25,-0.35,9.45
0.53,1.92,-9.32,1.21,0.13,9.74
-0.36,2.25,-9.17,1.10,0.32,9.78
-1.07,2.68,-8.88,1.08,-0.41,9.50
-0.16,3.00,-8.68,1.12,-0.60,9.43
0.47,3.28,-8.50,1.11,-0.46,9.49
0.56,3.46,-8.34,0.94,-0.16,9.53
0.01,3.03,-8.09,0.76,-0.08,9.59
0.01,2.64,-7.94,0.88,-0.31,9.64
0.45,2.51,-7.78,0.85,-0.49,9.60
0.93,2.42,-7.62,0.88,-0.45,9.70
0.98,2.22,-7.16,0.69,0.13,10.01
0.26,2.05,-7.05,0.72,0.17,10.10
-0.39,2.04,-6.92,0.85,-0.02,10.14
-0.66,2.14,-6.74,0.75,-0.34,9.92
0.26,2.33,-6.41,0.78,-0.32,9.99
0.31,2.28,-6.23,0.68,0.06,10.05
-0.22,2.18,-6.06,0.58,0.35,10.04
-1.03,1.83,-5.86,0.58,0.21,9.90
-1.22,1.76,-5.57,0.75,-0.71,9.70
-0.26,1.95,-5.33,0.77,-0.68,9.83
0.45,1.88,-5.12,0.49,-0.18,10.00
0.10,1.37,-4.91,0.40,0.31,10.24
-2.03,0.81,-4.61,0.53,-0.14,10.30
-1.94,0.87,-4.39,0.45,-0.70,10.10
-0.96,0.84,-4.20,0.40,-0.84,10.08
-0.09,0.69,-3.96,0.51,-0.42,10.31
-1.08,0.60,-3.54,0.52,0.43,10.16
-1.98,0.63,-3.32,0.42,0.05,9.57
-1.86,1.08,-3.07,0.70,-0.55,9.13
-0.81,1.81,-2.85,1.00,-0.79,8.84
0.70,3.05,-2.38,0.64,0.02,8.88
-0.09,3.19,-2.25,0.46,0.33,9.09
-1.01,3.14,-2.10,0.47,0.09,9.31
-1.28,2.94,-1.93,0.42,-0.44,9.43
0.67,2.02,-1.52,0.27,-0.76,9.64
1.32,1.26,-1.34,0.13,-0.38,9.79
1.27,0.84,-1.18,0.17,0.05,9.98
0.57,0.49,-1.10,0.15,0.28,9.89
-0.19,-0.01,-0.78,0.28,-0.34,9.74
0.22,0.03,-0.61,0.20,-0.57,9.56
1.02,0.24,-0.42,0.13,-0.42,9.76
1.22,0.42,-0.33,-0.13,0.04,9.94
-0.18,0.00,-0.22,-0.42,0.29,10.05
-0.87,-0.40,-0.15,-0.38,0.07,10.02
-1.10,-0.63,-0.06,-0.31,-0.18,9.92
-1.04,-0.66,0.08,-0.18,-0.33,9.83
-1.03,-0.68,0.36,-0.42,0.00,9.86
-1.60,-0.82,0.44,-0.44,0.12,10.07
-2.54,-1.00,0.46,-0.08,-0.08,10.37
-2.75,-0.97,0.62,0.01,-0.49,10.33
-1.32,-0.93,0.97,-0.18,-0.52,9.82
-0.96,-0.90,1.04,-0.06,-0.23,9.75
-1.05,-0.67,1.21,0.10,0.04,9.66
-1.73,-0.23,1.31,0.33,-0.07,9.66
-1.19,0.57,1.49,0.25,-0.65,9.06
-0.10,1.06,1.63,0.48,-0.57,9.38
0.54,1.45,1.82,0.23,-0.12,9.49
0.07,1.54,1.97,0.12,0.17,9.76
-1.22,1.35,2.07,0.23,-0.41,9.93
-0.66,1.47,2.16,0.26,-0.83,9.92
0.35,1.47,2.28,0.19,-0.85,9.88
1.04,1.20,2.37,0.25,-0.50,9.90
1.08,1.16,2.75,-0.07,0.20,9.72
0.87,1.19,2.60,-0.27,0.33,9.64
-0.36,0.74,2.51,-0.08,0.18,10.06
-1.18,0.03,2.78,0.17,-0.98,10.14
0.56,0.18,3.16,0.18,-1.05,10.06
2.20,0.38,3.28,-0.23,-0.56,9.72
2.67,0.43,3.36,-0.38,0.34,9.70
1.37,0.60,3.33,-0.03,0.80,10.07
-1.93,1.47,3.20,-0.20,-0.26,9.63
-1.74,1.58,3.33,0.15,-0.88,9.78
-0.19,1.77,3.59,-0.13,-0.89,9.87
0.94,1.57,3.85,-0.51,-0.39,9.88
-0.07,0.93,3.93,-0.59,0.43,9.90
-1.42,0.61,3.91,-0.49,0.26,9.68
-2.08,0.80,3.85,-0.17,-0.12,9.81
-2.04,1.07,3.89,-0.20,-0.48,9.65
-1.12,0.77,4.16,-0.57,-0.34,9.87
-1.00,0.18,4.33,-0.59,0.00,9.94
-1.51,-0.27,4.41,-0.48,0.13,10.02
-2.03,-0.31,4.38,-0.43,-0.05,9.66
-1.78,0.10,4.35,-0.53,-0.61,8.97
-0.94,0.36,4.37,-0.52,-0.51,8.97
-0.50,0.33,4.49,-0.50,-0.28,9.18
-0.54,0.09,4.56,-0.50,-0.03,9.27
-0.68,-0.57,4.74,-0.61,-0.25,8.89
-0.18,-0.54,4.75,-0.56,-0.46,8.66
0.50,-0.33,4.75,-0.42,-0.41,8.68
0.57,0.29,4.76,-0.45,0.09,9.27
-0.05,0.26,4.97,-0.02,0.03,9.65
-0.27,0.60,5.17,0.11,-0.32,10.31
0.28,1.15,5.19,-0.54,-0.43,10.14
0.54,0.93,5.37,-0.61,-0.31,10.24
-0.06,1.02,5.42,-0.23,0.26,10.50
-1.17,1.38,5.62,0.05,0.03,10.37
-1.34,1.90,5.74,0.34,-0.29,10.31
-1.07,2.25,5.92,-0.00,-0.44,10.02
-0.78,2.75,6.10,-0.15,-0.13,10.24
-1.24,2.62,6.10,-0.37,0.05,10.20
-1.70,2.26,6.08,-0.35,0.04,10.14
-1.79,1.73,6.22,0.11,-0.44,10.11
-1.55,2.02,6.42,0.28,-0.43,10.31
-1.79,2.19,6.75,0.09,-0.45,10.38
-1.95,2.26,6.70,-0.31,-0.45,10.55
-1.63,2.04,6.65,-0.98,-0.34,10.12
-0.15,0.66,6.65,-0.48,-0.11,9.72
-1.40,0.41,6.89,0.39,0.11,10.24
-2.85,1.42,6.85,0.19,-0.17,10.12
-3.11,2.28,7.07,-0.15,-0.78,9.59
0.83,3.34,7.10,-1.05,-0.43,9.78
0.82,3.43,7.09,-1.35,0.29,10.02
-0.64,3.03,7.00,-1.01,0.23,10.10
-1.59,2.24,6.93,-0.67,-0.32,9.65
0.23,1.45,7.26,-0.72,-0.89,8.29
1.94,2.09,7.26,-0.70,-0.53,8.40
2.16,2.71,7.13,-0.93,0.15,8.70
0.98,2.83,7.01,-1.16,0.44,9.12
-0.58,1.19,7.17,-1.16,-0.57,9.53
0.68,0.42,7.30,-0.92,-0.91,9.27
2.14,0.28,7.46,-0.71,-0.56,9.29
2.40,0.74,7.48,-0.90,0.13,9.28
-0.59,1.12,7.35,-0.88,0.34,9.79
-1.30,1.00,7.43,-0.71,-0.24,9.95
-0.71,0.60,7.65,-0.89,-0.71,9.92
0.47,0.24,7.84,-0.97,-0.67,9.92
0.25,0.05,7.91,-0.99,0.30,10.00
-0.91,0.17,7.85,-0.96,0.28,10.04
-1.70,-0.05,7.85,-0.79,-0.17,9.91
-1.31,-0.32,8.03,-0.71,-0.72,9.62
0.68,0.31,8.33,-0.47,-0.29,10.00
0.30,0.74,8.28,-0.93,0.18,10.16
-0.84,0.53,8.22,-1.23,0.22,10.16
-1.60,-0.14,8.22,-1.12,-0.28,10.07
0.05,-0.48,8.32,-0.49,-0.81,9.65
1.18,-0.02,8.39,-0.47,-0.34,9.55
1.23,0.33,8.36,-0.80,0.20,9.44
0.28,0.36,8.30,-0.91,0.33,9.43
-0.56,0.67,8.35,-0.51,-0.58,9.69
0.48,1.02,8.39,-0.43,-0.82,9.74
1.63,1.21,8.56,-0.63,-0.49,9.81
1.80,1.12,8.57,-0.85,0.09,9.92
-0.25,0.89,8.45,-0.78,0.21,9.97
-0.57,0.82,8.43,-0.73,-0.42,9.66
0.23,0.77,8.61,-0.46,-0.76,9.63
1.32,0.97,8.75,-0.38,-0.58,9.73
0.80,1.34,8.75,-0.88,0.33,9.86
-0.26,1.24,8.65,-1.03,0.30,10.00
-0.98,0.92,8.61,-0.98,-0.15,10.04
-0.67,0.69,8.64,-0.73,-0.72,10.01
1.34,0.80,8.83,-0.80,-0.34,9.77
1.04,0.79,8.81,-0.80,0.15,9.92
0.04,0.77,8.75,-0.97,0.25,10.04
-0.79,0.76,8.69,-0.98,-0.11,10.04
0.09,0.72,8.74,-1.01,-0.64,10.22
0.63,0.53,8.76,-1.10,-0.26,10.44
0.25,0.31,8.75,-1.01,0.27,10.79
-1.19,-0.04,8.66,-1.15,0.40,10.75
-2.37,-0.79,8.64,-1.16,-0.51,10.36
-1.66,-0.97,8.63,-1.11,-0.62,10.07
-1.08,-1.11,8.67,-0.96,-0.27,9.87
-1.07,-0.97,8.76,-0.82,0.10,9.90
-2.53,-0.63,8.77,-0.86,-0.29,9.25
-1.96,-0.17,8.84,-0.83,-0.75,9.10
-0.82,0.21,8.83,-0.91,-0.87,8.88
0.30,0.45,8.84,-0.83,-0.47,9.02
-0.10,0.39,8.95,-1.04,0.03,8.98
-0.40,0.23,8.96,-0.93,-0.28,8.89
0.19,0.23,8.94,-0.77,-0.68,8.84
1.21,0.44,9.00,-0.74,-0.65,9.06
1.52,0.68,9.02,-0.94,0.18,9.82
0.54,0.17,9.10,-1.15,0.14,10.02
0.16,-0.42,9.06,-1.07,-0.24,9.98
0.60,-0.64,9.08,-0.83,-0.43,10.00
1.33,-0.48,9.21,-0.80,0.08,9.78
0.50,-0.40,9.26,-0.77,0.25,10.13
-0.64,-0.40,9.17,-0.85,0.02,10.14
-1.04,-0.33,9.26,-0.81,-0.39,10.33
0.33,-0.78,9.32,-1.21,-0.31,10.02
0.35,-1.09,9.47,-0.79,0.13,10.35
-0.78,-1.04,9.43,-0.61,0.15,10.20
-1.71,-0.67,9.49,-0.78,-0.25,9.76
-0.12,0.06,9.53,-0.88,-1.00,9.55
1.26,0.34,9.60,-0.89,-0.38,9.84
1.19,0.49,9.62,-0.86,0.35,10.05
-0.17,0.40,9.60,-0.89,0.55,9.96
-1.25,0.44,9.49,-0.82,-0.88,9.25
0.53,0.87,9.55,-0.79,-1.12,9.09
2.19,1.07,9.57,-0.91,-0.50,9.25
0.77,0.58,9.50,-1.04,0.77,10.14
-1.32,0.02,9.38,-0.94,0.27,10.26
-1.72,-0.21,9.41,-0.99,-0.72,10.05
-0.32,-0.28,9.47,-1.01,-1.28,9.70
1.72,-0.22,9.58,-0.92,-0.77,9.86
1.26,-0.20,9.55,-0.97,0.74,10.18
-0.78,-0.05,9.58,-0.81,0.57,10.27
-2.05,0.13,9.53,-0.87,-0.22,9.80
-1.53,0.39,9.59,-0.97,-0.91,9.44
1.42,0.61,9.79,-0.91,-0.21,9.34
0.89,0.63,9.83,-0.95,0.58,9.71
-0.79,0.59,9.74,-1.07,0.61,9.66
-2.21,0.11,9.70,-1.15,-0.17,9.31
0.19,0.02,9.91,-0.73,-1.08,9.11
1.53,0.14,10.01,-0.83,-0.49,9.34
1.29,0.35,10.02,-0.86,0.23,9.85
-0.08,0.37,9.94,-1.14,0.43,10.01
-0.76,-0.14,9.96,-1.05,-0.90,10.11
0.94,-0.22,10.02,-1.01,-0.97,10.04
2.02,-0.15,10.00,-0.93,-0.24,10.30
1.57,-0.10,10.04,-1.03,0.48,10.46
-1.20,-0.58,9.96,-1.15,0.16,10.42
-1.29,-0.65,9.99,-1.00,-0.55,10.19
-0.58,-0.49,10.00,-0.76,-0.77,10.01
0.31,-0.06,10.16,-0.73,-0.40,10.05
-0.64,0.20,10.21,-1.04,0.46,10.20
-1.73,0.05,10.25,-1.08,0.21,10.11
-2.34,-0.12,10.20,-0.97,-0.41,9.75
-1.83,0.07,10.23,-0.91,-0.89,9.59
0.26,0.25,10.22,-1.11,-0.37,9.58
0.10,-0.12,10.23,-1.18,0.13,9.77
-0.69,-0.66,10.13,-1.35,0.23,9.58
-1.18,-1.07,10.13,-1.20,-0.11,9.52
-0.03,-1.29,10.06,-1.17,-0.76,9.01
1.00,-1.10,10.14,-0.97,-0.53,9.26
1.28,-0.92,10.12,-1.02,-0.06,9.40
0.78,-0.81,10.11,-1.11,0.30,9.54
-0.51,-0.48,10.04,-1.03,-0.19,9.50
-0.12,0.04,10.04,-0.87,-0.48,9.60
0.41,0.50,10.04,-0.91,-0.47,9.61
0.62,0.71,10.09,-1.04,-0.21,9.67
-0.16,0.68,10.01,-0.98,0.19,9.98
-0.74,0.74,9.97,-1.04,0.07,10.01
-1.01,0.69,9.95,-1.06,-0.18,10.06
-1.10,0.36,9.90,-1.00,-0.38,10.16
-0.56,-0.35,9.97,-0.93,-0.38,10.39
-0.57,-0.60,10.02,-0.85,-0.14,10.38
-0.91,-0.75,10.09,-0.92,0.03,10.25
-1.44,-0.81,10.06,-0.95,-0.08,10.16
-1.09,-0.83,10.07,-0.93,-0.72,9.86
-0.24,-0.69,10.09,-0.79,-0.62,9.88
0.32,-0.52,10.13,-0.88,-0.28,9.82
0.15,-0.46,10.16,-1.01,0.03,9.81
-0.79,-0.43,10.02,-1.08,-0.34,9.63
-0.42,-0.42,10.03,-0.99,-0.75,9.61
0.75,-0.29,10.08,-0.86,-0.73,9.60
1.46,-0.20,10.14,-0.82,-0.27,9.66
0.33,0.08,10.11,-1.04,0.33,9.83
-0.67,0.05,10.08,-1.06,-0.09,9.92
-0.58,0.08,10.06,-0.94,-0.61,9.96
0.42,0.10,10.12,-0.95,-0.70,9.93
0.90,-0.23,10.26,-1.06,0.28,9.79
-0.21,-0.43,10.25,-1.11,0.37,9.62
-1.24,-0.44,10.12,-0.97,-0.03,9.47
-1.19,-0.34,10.08,-1.07,-0.65,9.11
1.24,-0.65,10.15,-1.00,-0.53,9.11
1.34,-0.69,10.15,-0.88,0.06,9.42
0.45,-0.59,10.08,-0.99,0.33,9.53
-0.57,-0.57,10.03,-1.27,0.05,9.27
0.33,-0.56,9.86,-1.10,-0.84,9.27
1.53,-0.28,9.88,-1.08,-0.57,9.59
1.68,-0.23,9.82,-0.96,0.06,10.21
0.61,-0.56,9.68,-1.16,0.48,10.47
-1.31,-1.23,9.53,-1.24,-0.31,10.34
-0.73,-1.33,9.50,-1.10,-0.68,10.16
0.14,-1.31,9.50,-1.02,-0.51,10.08
0.40,-1.19,9.49,-0.93,0.02,10.11
-1.47,-0.91,9.27,-1.06,0.20,9.87
-1.87,-0.78,9.21,-1.01,-0.30,9.59
-1.15,-0.43,9.20,-0.83,-0.64,9.53
-0.21,-0.01,9.23,-0.74,-0.54,9.51
-0.21,0.51,9.09,-0.79,0.07,9.52
-0.77,0.73,9.02,-0.77,0.02,9.36
-0.94,0.91,8.98,-0.81,-0.24,9.25
-0.53,1.03,8.92,-0.69,-0.48,9.40
0.29,0.85,8.84,-0.76,-0.38,9.71
0.36,0.58,8.79,-0.75,-0.23,9.96
0.39,0.12,8.77,-1.00,-0.17,9.91
0.41,-0.44,8.73,-0.92,-0.24,10.06
0.53,-0.74,8.61,-0.81,-0.06,10.32
0.15,-0.77,8.56,-0.85,-0.02,10.52
-0.28,-1.09,8.55,-0.94,-0.14,10.51
-0.31,-1.42,8.53,-0.90,-0.32,10.51
0.01,-1.16,8.53,-0.69,-0.21,10.30
-0.22,-0.75,8.48,-0.80,-0.07,10.32
-0.69,-0.58,8.45,-0.94,-0.09,10.36
-1.08,-0.77,8.40,-1.12,-0.24,10.10
-0.62,-0.72,8.38,-0.55,-0.33,10.04
-0.75,-0.41,8.35,-0.86,-0.19,9.67
-1.00,-0.36,8.31,-1.02,-0.15,9.61
-1.22,-0.61,8.19,-1.03,-0.19,9.55
-1.18,-0.87,8.21,-0.98,-0.30,9.36
-0.94,-0.98,8.21,-0.75,-0.43,9.28
-0.46,-0.87,8.13,-0.78,-0.44,8.91
-0.03,-0.61,8.16,-0.81,-0.32,8.78
0.09,-0.08,7.95,-0.81,-0.11,8.97
-0.18,0.01,7.97,-0.78,-0.19,9.35
-0.07,0.07,7.92,-0.85,-0.43,9.48
0.40,-0.12,7.91,-1.08,-0.56,9.49
1.57,-0.79,7.82,-0.91,-0.12,9.64
1.23,-0.83,7.82,-0.75,0.13,9.74
0.50,-0.63,7.78,-0.68,-0.01,9.83
0.54,-0.48,7.74,-0.83,-0.47,9.95
1.13,-0.50,7.74,-0.87,-0.36,10.28
1.10,-0.67,7.75,-1.04,0.01,10.31
0.49,-0.97,7.78,-0.97,0.18,10.34
-0.24,-1.09,7.70,-0.56,0.05,10.29
-0.26,-0.10,7.76,-0.60,-0.40,9.79
-0.01,0.28,7.72,-0.78,-0.35,9.76
-0.03,0.20,7.67,-0.89,-0.16,9.91
-0.45,-0.13,7.62,-0.96,-0.02,9.92
-0.80,-0.66,7.61,-0.48,-0.29,9.59
-0.47,-0.66,7.66,-0.68,-0.43,9.15
0.06,-0.43,7.68,-0.58,-0.46,9.10
0.23,-0.10,7.66,-0.43,-0.30,9.46
-0.02,0.16,7.58,-0.83,-0.15,9.79
0.07,-0.21,7.56,-0.70,-0.22,9.92
0.45,-0.42,7.58,-0.67,-0.29,9.80
0.64,-0.31,7.64,-0.46,-0.31,9.88
0.72,0.16,7.53,-0.81,-0.24,9.87
0.66,0.07,7.47,-0.78,-0.17,10.15
0.73,-0.11,7.48,-0.84,-0.09,10.13
0.58,-0.38,7.50,-0.70,-0.06,10.14
0.24,-0.41,7.55,-0.67,-0.25,9.92
0.31,-0.26,7.55,-0.73,-0.33,10.01
0.55,-0.35,7.52,-0.86,-0.23,10.10
-0.06,-0.72,7.50,-0.62,0.13,10.36
-0.86,-0.56,7.48,-0.61,0.06,10.13
-1.33,-0.37,7.52,-0.72,-0.33,9.82
-0.95,-0.22,7.51,-0.85,-0.62,9.56
-0.14,-0.14,7.53,-0.87,-0.54,9.47
0.06,0.06,7.49,-0.65,0.07,9.57
-0.51,0.13,7.47,-0.84,0.02,9.22
-0.69,0.14,7.41,-0.68,-0.36,8.99
-0.20,0.36,7.39,-0.59,-0.66,8.90
1.40,1.12,7.37,-0.71,-0.22,9.32
1.18,0.82,7.38,-0.92,0.12,9.63
0.59,0.30,7.30,-0.99,0.12,9.87
0.14,-0.06,7.24,-0.81,-0.17,10.06
0.89,-0.26,7.19,-0.90,-0.55,9.98
1.27,-0.47,7.21,-0.71,-0.34,10.24
1.29,-0.44,7.21,-0.70,0.03,10.49
0.72,-0.29,7.21,-0.73,0.33,10.62
-1.01,-0.51,7.07,-1.03,-0.08,10.50
-1.15,-0.62,7.02,-0.83,-0.54,10.37
-0.43,-0.49,7.03,-0.69,-0.70,10.20
0.24,-0.25,7.02,-0.64,-0.40,10.11
-0.58,-0.29,7.03,-0.90,0.26,9.94
-1.44,-0.50,6.97,-0.69,-0.08,9.93
-1.51,-0.39,6.89,-0.55,-0.61,9.69
-0.65,-0.21,6.90,-0.79,-0.99,9.27
1.37,-0.21,6.80,-0.86,-0.18,9.57
1.13,-0.72,6.75,-1.10,0.38,9.49
0.17,-1.37,6.71,-0.84,0.41,9.68
-0.74,-1.82,6.64,-0.66,0.03,9.46
-0.05,-1.44,6.56,-0.59,-0.91,9.17
1.16,-1.28,6.49,-0.86,-0.64,9.18
1.76,-1.30,6.38,-0.98,0.11,9.49
0.97,-1.33,6.32,-0.66,0.62,10.03
-1.48,-1.14,6.21,-0.62,-0.39,9.61
-0.75,-0.91,6.16,-0.63,-1.12,9.33
1.02,-0.49,6.06,-0.51,-1.03,9.39
2.38,0.21,5.98,-0.49,-0.19,9.89
0.01,0.14,5.71,-0.78,0.82,10.32
-1.72,-0.18,5.57,-0.52,0.24,10.41
-2.08,-0.36,5.45,-0.43,-0.68,9.97
-0.84,-0.23,5.42,-0.48,-1.11,9.65
1.22,-0.27,5.13,-0.66,0.05,9.69
0.33,-0.42,5.00,-0.57,0.56,9.98
-1.24,-0.70,4.88,-0.39,0.27,9.93
-1.75,-0.89,4.77,-0.38,-0.48,9.44
1.02,-0.40,4.71,-0.28,-0.96,9.22
1.93,-0.03,4.51,-0.52,-0.31,9.48
1.49,0.16,4.36,-0.53,0.34,9.95
0.32,0.10,4.15,-0.52,0.52,10.20
-0.62,-0.19,4.01,-0.33,-0.64,10.09
0.29,-0.06,3.95,-0.20,-0.93,9.94
1.48,0.38,3.88,-0.31,-0.59,9.99
1.70,0.75,3.65,-0.58,0.18,10.20
-0.91,0.12,3.33,-0.61,0.39,10.57
-1.70,-0.24,3.15,-0.48,-0.25,10.20
-1.00,-0.34,3.12,-0.27,-0.86,9.74
0.36,-0.21,3.08,-0.19,-0.90,9.58
0.66,0.01,2.86,-0.42,0.42,9.92
-0.77,-0.21,2.71,-0.41,0.48,10.05
-1.72,-0.57,2.55,-0.39,-0.19,9.91
-1.26,-0.75,2.49,-0.37,-0.93,9.65
1.53,-0.67,2.41,-0.22,-0.42,9.75
1.20,-0.74,2.32,-0.36,0.28,9.90
-0.15,-0.94,2.21,-0.36,0.41,9.92
-0.89,-0.91,2.00,-0.20,-0.71,9.63
0.28,-0.69,1.96,-0.21,-0.91,9.64
1.27,-0.53,1.89,-0.36,-0.46,9.83
1.26,-0.70,1.77,-0.55,0.19,9.99
0.09,-1.12,1.66,-0.42,0.46,10.10
-0.79,-1.31,1.50,-0.17,-0.46,9.40
0.11,-1.00,1.41,-0.14,-0.69,9.10
0.93,-0.59,1.27,-0.15,-0.46,9.08
0.96,-0.32,1.12,-0.19,0.03,9.28
-0.66,-0.43,0.85,-0.22,0.18,9.72
-1.14,-0.60,0.68,-0.15,-0.27,9.85
-0.71,-0.57,0.62,-0.21,-0.66,9.78
0.00,-0.60,0.56,-0.17,-0.70,9.80
0.59,-0.55,0.38,-0.15,0.10,9.89
-0.24,-0.54,0.24,-0.05,0.25,9.92
-0.88,-0.40,0.14,0.01,0.03,9.80
-0.96,-0.27,0.04,0.12,-0.43,9.60
0.73,0.23,-0.03,-0.03,-0.59,9.31
1.27,0.18,-0.08,-0.07,-0.21,9.39
0.99,0.17,-0.18,0.05,0.08,9.76
0.22,0.24,-0.27,0.11,0.03,9.92
0.29,0.13,-0.37,0.01,-0.63,9.89
1.18,-0.03,-0.39,0.06,-0.63,9.97
1.75,-0.01,-0.41,0.11,-0.20,10.16
0.23,0.22,-0.44,0.01,0.32,10.37
-0.66,0.17,-0.53,0.10,-0.00,10.34
-0.61,0.27,-0.47,0.15,-0.43,10.16
0.01,0.41,-0.39,0.14,-0.57,9.96
0.56,0.54,-0.42,0.10,-0.32,9.88
-0.27,0.58,-0.46,-0.00,0.03,9.90
-0.67,0.46,-0.45,-0.05,-0.21,9.86
-0.28,0.09,-0.39,-0.14,-0.44,9.73
0.47,-0.38,-0.30,-0.01,-0.41,9.91
0.04,-0.72,-0.22,-0.07,0.04,10.03
-0.55,-0.76,-0.16,-0.09,-0.10,10.01
-0.56,-0.83,-0.09,0.03,-0.33,9.96
0.11,-0.67,0.12,0.00,-0.13,9.85
-0.31,-0.45,0.16,0.13,-0.02,9.96
-0.89,-0.15,0.17,-0.00,-0.15,9.89
-1.00,0.01,0.22,-0.18,-0.40,9.65
-0.35,0.01,0.27,-0.14,-0.47,9.63
0.26,-0.22,0.39,-0.04,-0.09,9.63
-0.26,-0.02,0.34,0.04,-0.13,9.66
-0.44,0.22,0.32,-0.13,-0.36,9.39
0.00,0.22,0.29,-0.32,-0.57,9.27
1.24,-0.08,0.30,-0.17,-0.03,9.83
0.58,-0.26,0.25,-0.14,0.19,9.92
-0.35,-0.42,0.23,-0.06,-0.08,9.82
-0.31,-0.44,0.20,-0.08,-0.54,9.47
1.75,0.10,0.15,0.02,-0.27,9.32
1.54,0.44,0.08,0.05,0.29,9.45
0.18,0.64,0.04,0.02,0.39,9.56
-0.87,0.76,-0.02,0.06,-0.08,9.55
0.92,0.74,-0.01,-0.01,-0.86,9.44
2.08,0.74,0.00,-0.04,-0.33,9.69
1.78,0.65,-0.04,-0.23,0.30,9.91
0.40,0.48,-0.19,-0.11,0.50,10.24
-0.77,-0.04,-0.30,-0.14,-0.56,10.01
0.16,-0.16,-0.24,0.05,-0.75,10.11
1.04,-0.15,-0.15,-0.02,-0.41,10.17
0.85,-0.15,-0.16,-0.05,0.08,10.37
-0.93,-0.23,-0.29,-0.30,0.16,10.42
-1.43,-0.51,-0.32,-0.35,-0.27,10.18
-0.95,-0.64,-0.32,-0.03,-0.56,10.24
-0.29,-0.59,-0.27,-0.02,-0.45,10.09
-0.45,-0.58,-0.17,0.02,0.01,9.96
-0.91,-0.59,-0.15,-0.02,-0.04,9.79
-0.96,-0.42,-0.16,-0.09,-0.27,9.46
-0.51,-0.29,-0.10,0.02,-0.48,9.26
0.54,0.23,-0.04,0.17,-0.13,9.48
0.11,0.55,0.02,0.18,0.10,9.79
-0.63,0.83,0.02,0.17,0.04,9.99
-1.06,0.84,0.06,-0.10,-0.20,10.03
-0.54,0.44,0.08,-0.15,-0.37,10.40
-0.25,0.09,0.08,-0.13,-0.05,10.34
-0.64,-0.27,0.08,-0.10,0.22,10.15
-1.38,-0.48,0.05,-0.13,0.23,9.69
-1.92,-0.26,0.03,0.36,-0.52,9.24
-1.01,0.25,0.03,0.06,-0.51,8.84
-0.31,0.52,0.11,0.02,-0.22,9.13
-0.60,0.67,0.00,0.02,0.14,9.43
-2.01,0.52,0.03,0.04,-0.43,9.56
-1.36,0.54,-0.03,-0.01,-0.93,9.39
0.11,0.43,-0.02,-0.22,-0.96,9.18
1.28,0.35,-0.05,-0.04,-0.44,9.67
-0.11,0.16,-0.19,-0.18,0.41,9.95
-1.17,-0.14,-0.17,-0.02,-0.16,10.09
-0.79,-0.16,-0.16,-0.04,-0.87,9.83
0.65,-0.16,-0.11,-0.05,-1.05,9.75
2.09,0.37,-0.12,-0.09,0.30,10.32
0.75,0.37,-0.20,-0.12,0.61,10.37
-0.57,0.43,-0.18,0.04,0.20,10.39
-0.79,0.61,-0.14,0.09,-0.56,9.98
1.19,1.52,0.05,0.35,-0.59,10.10
1.41,2.11,-0.00,-0.02,-0.06,10.03
0.61,2.19,-0.11,-0.22,0.33,10.11
-0.45,2.00,-0.18,-0.04,0.27,10.42
-1.12,1.45,-0.16,0.15,-0.78,10.03
-0.14,1.41,-0.11,0.11,-0.99,9.76
1.13,1.22,0.02,-0.27,-0.55,9.33
1.53,0.80,0.03,-0.26,0.16,9.68
-0.85,-0.10,-0.18,-0.24,0.48,9.58
-1.77,-0.53,-0.19,-0.09,-0.27,9.47
-1.28,-0.65,-0.20,-0.08,-0.92,9.16
0.32,-0.55,-0.04,0.07,-0.93,9.19
1.01,-0.26,0.23,-0.36,0.46,9.62
-0.54,-0.48,0.16,-0.39,0.59,9.66
-1.74,-0.65,0.05,-0.33,0.11,9.63
-1.84,-0.47,-0.02,-0.20,-0.57,9.45
0.20,0.18,0.16,-0.17,-0.48,9.79
0.20,-0.08,0.24,-0.43,0.11,9.82
-0.63,-0.58,0.23,-0.49,0.38,9.99
-1.58,-0.87,0.19,-0.26,0.21,9.96
-1.25,-0.80,0.10,-0.24,-0.65,9.16
-0.32,-0.66,0.13,0.01,-0.65,9.09
0.38,-0.40,0.15,0.13,-0.22,9.11
0.16,-0.03,0.22,0.07,0.20,9.31
-1.43,0.45,0.09,0.01,0.03,9.36
-1.37,0.60,0.11,0.10,-0.49,9.39
-0.57,0.97,0.13,0.10,-0.73,9.38
0.36,1.31,0.07,0.02,-0.50,9.45
0.17,1.22,0.05,0.11,0.21,9.77
-0.46,1.32,0.02,0.23,0.09,9.76
-0.74,1.47,0.01,0.32,-0.37,9.62
0.89,2.21,0.08,0.30,-0.63,9.93
1.38,2.39,0.03,-0.08,-0.16,10.27
1.02,2.13,-0.05,-0.24,0.34,10.78
-0.03,1.47,-0.07,-0.25,0.44,11.11
-1.12,0.77,-0.09,0.02,0.04,11.18
-0.64,0.53,0.12,0.16,-0.79,10.53
0.13,0.72,0.10,-0.02,-0.54,10.45
0.18,0.94,0.06,-0.20,0.07,10.76
-0.71,0.92,0.02,-0.29,0.48,11.07
-2.98,-0.04,0.01,-0.21,-0.24,10.74
-2.67,-0.15,0.05,0.02,-0.84,10.20
-1.52,0.23,0.13,-0.00,-0.90,9.75
-0.61,0.72,0.20,-0.19,-0.46,9.56
-1.54,1.02,0.13,-0.07,0.48,9.77
-2.78,1.04,0.15,-0.12,0.10,9.45
-3.02,1.01,0.19,-0.21,-0.65,8.95
-1.79,1.22,0.23,0.04,-1.14,8.97
0.67,1.82,0.29,-0.27,-0.30,9.23
0.42,1.64,0.31,-0.32,0.21,9.63
-0.56,1.05,0.23,-0.47,0.29,9.69
-1.25,0.36,0.11,-0.57,-0.05,9.53
-0.09,-0.66,0.15,-0.32,-0.87,9.19
1.03,-0.95,0.14,-0.25,-0.61,9.14
1.59,-1.06,0.20,-0.15,-0.05,9.13
1.09,-0.95,0.24,-0.03,0.39,9.32
-1.15,-0.20,0.08,-0.37,-0.02,9.06
-1.11,0.01,0.04,-0.23,-0.64,9.23
0.11,0.12,0.07,-0.18,-0.87,9.36
1.29,0.02,0.12,-0.25,-0.52,9.52
0.45,-0.39,0.12,-0.30,0.34,9.62
-0.68,-0.33,-0.04,-0.34,0.06,9.52
-0.92,-0.07,-0.15,-0.24,-0.51,9.33
-0.05,-0.03,-0.14,-0.09,-0.81,9.47
1.38,-0.56,-0.03,-0.16,0.00,9.94
0.58,-0.97,-0.03,-0.21,0.29,9.96
-0.24,-1.23,-0.07,-0.41,0.10,9.55
0.24,-1.17,-0.22,0.10,-0.61,9.23
1.27,-0.70,-0.14,0.26,-0.46,9.27
1.56,-0.28,-0.03,0.28,-0.08,9.52
1.06,0.18,0.01,0.10,0.24,9.77
0.09,0.54,0.02,-0.06,0.19,9.91
-0.03,0.83,-0.09,-0.20,-0.51,10.28
0.61,0.74,-0.11,0.07,-0.54,10.57
0.93,0.70,0.01,0.14,-0.23,10.66
0.57,0.78,0.08,0.03,0.05,10.59
-0.67,0.56,-0.02,-0.32,-0.09,10.29
-0.53,0.20,-0.01,-0.34,-0.36,10.14
-0.08,-0.19,-0.06,-0.03,-0.37,10.19
-0.03,-0.26,0.03,0.15,-0.11,10.10
-0.35,-0.26,0.10,-0.11,-0.05,9.86
-0.49,-0.31,0.15,-0.16,-0.12,9.79
-0.43,-0.26,0.10,-0.04,-0.22,9.86
-0.36,-0.01,0.12,-0.05,-0.25,9.98
-0.56,-0.22,0.07,-0.31,-0.26,9.73
-0.44,-0.51,0.10,-0.12,-0.35,9.74
-0.09,-0.42,0.15,-0.03,-0.34,9.65
0.14,-0.31,0.20,-0.23,-0.16,9.52
-0.67,-0.66,0.10,-0.24,0.03,9.87
-1.10,-0.75,0.09,-0.23,-0.18,9.95
-0.89,-0.75,0.11,-0.21,-0.45,10.01
-0.39,-0.99,0.13,-0.28,-0.44,9.88
-0.14,-1.11,0.14,-0.09,0.09,10.01
-0.84,-0.87,0.15,-0.12,0.10,9.96
-1.38,-0.76,0.09,-0.18,-0.20,9.85
-1.22,-0.74,0.08,-0.24,-0.53,9.76
0.07,-0.66,0.05,-0.07,-0.29,9.84
-0.08,-0.63,0.05,-0.08,-0.01,9.84
-0.63,-0.62,0.02,-0.14,0.05,9.71
-1.07,-0.61,0.03,-0.07,-0.16,9.58
-0.27,-0.34,-0.05,-0.09,-0.51,9.35
0.19,-0.14,-0.07,-0.01,-0.34,9.56
0.16,-0.01,-0.16,-0.02,-0.03,9.83
-0.47,-0.15,-0.12,-0.18,0.15,9.89
-1.04,-0.91,-0.14,-0.08,-0.31,9.87
-0.76,-0.80,-0.08,0.05,-0.56,9.76
-0.20,-0.51,-0.06,0.05,-0.61,9.56
0.30,-0.26,-0.05,0.02,-0.35,9.63
-0.13,-0.07,-0.03,0.02,0.06,9.61
-0.33,-0.00,-0.05,-0.05,-0.08,9.56
-0.26,0.02,-0.04,-0.13,-0.37,9.37
0.15,0.06,-0.07,-0.03,-0.55,9.44
0.97,0.16,-0.01,-0.04,-0.30,9.53
1.05,0.02,-0.04,-0.12,-0.10,9.54
0.83,-0.16,-0.02,-0.15,-0.05,9.53
0.56,-0.15,-0.12,-0.15,-0.16,9.53
0.61,0.02,-0.14,-0.13,-0.46,9.83
0.82,-0.23,-0.17,-0.20,-0.40,10.00
1.02,-0.59,-0.14,-0.11,-0.25,10.22
0.92,-0.77,-0.10,-0.16,-0.09,10.23
-0.10,-0.81,-0.22,-0.25,-0.14,10.19
-0.28,-0.74,-0.28,-0.20,-0.32,10.27
-0.15,-0.79,-0.22,-0.14,-0.40,10.27
-0.04,-0.90,-0.18,-0.05,-0.37,10.30
-0.12,-0.99,-0.09,-0.07,-0.32,9.95
-0.03,-0.70,-0.12,-0.08,-0.35,9.93
0.03,-0.50,-0.15,-0.21,-0.32,9.82
0.03,-0.61,-0.15,-0.29,-0.34,9.71
0.42,-0.77,-0.08,0.06,-0.50,9.72
0.77,-0.83,-0.02,-0.15,-0.53,9.41
1.19,-1.00,-0.03,-0.22,-0.43,9.34
1.29,-1.16,-0.08,-0.21,-0.25,9.34
0.46,-1.13,-0.16,-0.00,-0.52,9.49
0.61,-1.16,-0.09,-0.00,-0.84,9.51
1.18,-1.28,-0.01,-0.12,-1.04,9.54
1.94,-1.31,-0.03,-0.21,-0.81,9.73
1.89,-1.62,-0.12,-0.33,0.17,9.83
0.87,-1.77,-0.15,-0.11,0.23,9.88
0.15,-1.60,-0.13,0.17,-0.06,9.75
0.27,-1.17,-0.10,0.21,-0.42,9.62
1.34,-0.35,0.01,-0.02,-0.34,9.66
1.31,-0.20,0.02,-0.08,0.05,9.88
0.51,-0.17,-0.04,-0.00,0.20,10.03
-0.22,-0.14,-0.13,-0.00,0.01,9.87
0.12,0.19,-0.09,0.31,-0.77,9.51
0.93,0.42,-0.01,0.09,-0.69,9.37
1.43,0.53,0.02,0.02,-0.42,9.53
1.21,0.42,-0.06,0.09,-0.12,9.79
-0.37,0.34,-0.15,0.16,-0.57,10.22
-0.25,0.17,-0.17,-0.03,-1.13,10.03
0.92,-0.05,-0.09,-0.06,-1.37,10.02
2.20,-0.11,-0.05,0.09,-0.92,10.19
1.62,-0.23,-0.12,-0.02,0.40,10.38
0.09,-0.21,-0.21,0.08,0.33,10.43
-0.75,-0.24,-0.18,-0.08,-0.30,10.00
1.45,0.04,-0.04,0.14,-0.79,9.96
2.16,0.12,0.01,-0.08,-0.15,10.00
1.52,0.22,-0.06,-0.06,0.40,10.33
-0.08,0.23,-0.08,-0.09,0.37,10.36
-1.25,0.08,-0.14,-0.24,-0.22,10.06
-0.21,-0.09,-0.09,-0.03,-1.29,9.88
0.73,-0.28,-0.02,-0.10,-1.00,9.82
0.98,-0.33,0.04,-0.14,-0.45,10.14
0.28,-0.52,-0.06,-0.35,-0.04,10.09
-1.32,-1.33,-0.12,-0.20,-0.66,9.78
-0.51,-1.46,-0.09,-0.06,-1.05,9.29
1.08,-1.25,0.05,0.10,-0.91,9.21
0.93,-0.39,0.07,0.07,0.42,9.53
-0.72,0.06,0.02,0.02,0.32,9.69
-1.72,0.31,-0.06,-0.07,-0.39,9.64
-1.16,0.45,-0.03,-0.06,-1.15,9.72
0.34,0.47,0.05,-0.03,-1.30,9.92
