angleSpeedx_y_z;lineAccx_y_z
-0.01,0.00,0.06,-0.00,-0.15,9.82
-0.02,-0.00,0.06,0.00,-0.15,9.81
-0.02,-0.02,0.05,0.00,-0.15,9.81
-0.02,-0.02,0.05,-0.00,-0.16,9.80
-0.03,0.00,0.05,-0.00,-0.17,9.80
-0.01,0.01,0.04,0.00,-0.17,9.80
0.01,-0.01,0.04,0.00,-0.16,9.79
-0.00,-0.02,0.04,-0.00,-0.17,9.79
-0.00,-0.01,0.05,-0.00,-0.17,9.79
0.02,0.01,0.05,-0.00,-0.18,9.79
-0.01,0.01,0.05,-0.00,-0.17,9.80
-0.02,-0.00,0.04,0.00,-0.18,9.80
-0.01,0.02,0.06,-0.01,-0.18,9.80
0.01,0.00,0.04,-0.00,-0.19,9.80
0.01,-0.00,0.02,0.00,-0.19,9.80
0.01,0.01,0.06,-0.00,-0.18,9.80
0.02,0.03,0.07,-0.01,-0.18,9.80
0.01,0.03,0.05,-0.00,-0.18,9.80
0.00,0.01,0.05,-0.00,-0.18,9.80
0.03,-0.01,0.06,-0.01,-0.19,9.80
0.03,-0.01,0.05,-0.01,-0.18,9.80
0.03,0.03,0.05,-0.01,-0.18,9.80
0.04,0.02,0.05,-0.01,-0.18,9.81
0.03,-0.02,0.06,-0.01,-0.17,9.81
0.03,-0.02,0.04,-0.01,-0.17,9.81
0.03,-0.02,0.03,-0.01,-0.16,9.81
0.04,-0.01,0.04,-0.02,-0.16,9.81
0.03,-0.01,0.05,-0.02,-0.15,9.81
0.04,-0.00,0.05,-0.02,-0.16,9.81
-0.01,0.00,0.06,-0.01,-0.16,9.81
-0.01,-0.00,0.05,-0.01,-0.15,9.81
0.02,-0.00,0.05,-0.01,-0.15,9.82
0.00,-0.02,0.04,-0.01,-0.15,9.81
-0.01,-0.02,0.05,-0.01,-0.15,9.81
-0.01,-0.01,0.06,-0.01,-0.15,9.81
-0.05,-0.03,0.04,-0.01,-0.16,9.80
-0.01,-0.03,0.04,-0.00,-0.16,9.80
-0.01,-0.01,0.06,-0.01,-0.17,9.81
-0.02,-0.03,0.05,-0.00,-0.17,9.80
-0.03,-0.04,0.05,0.00,-0.18,9.81
-0.02,-0.01,0.05,0.00,-0.18,9.81
-0.02,-0.03,0.05,0.00,-0.18,9.80
-0.02,-0.02,0.04,0.00,-0.18,9.80
-0.01,-0.02,0.04,0.00,-0.19,9.80
-0.00,0.00,0.05,0.00,-0.18,9.80
0.03,0.00,0.06,0.00,-0.18,9.80
0.02,0.00,0.07,-0.01,-0.19,9.80
0.01,0.02,0.05,0.00,-0.18,9.80
-0.00,0.05,0.04,0.00,-0.19,9.80
0.00,0.04,0.04,0.00,-0.18,9.80
0.02,0.02,0.04,-0.00,-0.18,9.80
0.04,0.01,0.05,-0.00,-0.17,9.80
0.04,0.01,0.03,-0.01,-0.17,9.80
0.03,-0.00,0.03,-0.01,-0.16,9.80
0.02,-0.01,0.02,-0.01,-0.16,9.81
0.03,-0.00,0.06,-0.01,-0.16,9.80
0.03,-0.00,0.05,-0.01,-0.15,9.80
0.02,-0.01,0.06,-0.01,-0.15,9.81
-0.00,-0.00,0.05,-0.01,-0.15,9.81
0.02,-0.01,0.05,-0.02,-0.15,9.81
0.01,-0.01,0.06,-0.02,-0.16,9.82
-0.01,-0.02,0.05,-0.02,-0.15,9.81
-0.01,-0.03,0.04,-0.02,-0.15,9.82
-0.02,-0.03,0.04,-0.01,-0.16,9.82
-0.02,-0.03,0.05,-0.01,-0.15,9.81
-0.00,0.00,0.06,-0.01,-0.16,9.81
-0.01,-0.02,0.05,-0.01,-0.16,9.81
-0.02,-0.02,0.04,-0.01,-0.17,9.81
-0.00,-0.01,0.04,-0.00,-0.17,9.80
0.01,-0.01,0.04,0.01,-0.17,9.80
-0.00,-0.01,0.06,0.00,-0.18,9.80
-0.02,-0.03,0.07,0.00,-0.18,9.80
-0.01,-0.01,0.06,0.00,-0.18,9.80
0.00,-0.01,0.05,0.00,-0.18,9.80
0.00,0.01,0.05,0.00,-0.19,9.80
-0.01,-0.01,0.04,0.01,-0.19,9.80
-0.00,0.02,0.06,0.00,-0.20,9.80
0.03,0.00,0.05,-0.01,-0.20,9.80
0.04,-0.03,0.04,-0.01,-0.19,9.80
-0.00,-0.02,0.06,0.01,-0.18,9.81
-0.01,-0.03,0.06,0.01,-0.19,9.80
0.02,-0.01,0.05,0.00,-0.19,9.79
0.06,0.01,0.07,0.01,-0.18,9.79
-0.01,0.03,0.07,-0.02,-0.16,9.82
-0.05,0.00,0.06,-0.01,-0.18,9.83
-0.02,-0.00,0.06,-0.02,-0.21,9.81
0.04,0.01,0.07,-0.02,-0.20,9.79
0.06,0.01,0.05,-0.01,-0.14,9.82
-0.03,0.04,0.05,-0.03,-0.16,9.81
-0.12,0.00,0.07,-0.03,-0.22,9.82
-0.00,-0.04,0.07,-0.02,-0.24,9.81
0.14,-0.00,0.05,0.01,-0.14,9.79
0.02,0.05,0.06,-0.00,-0.10,9.81
-0.07,0.03,0.07,-0.03,-0.15,9.83
-0.06,-0.03,0.06,-0.04,-0.21,9.82
0.13,-0.04,0.06,0.01,-0.19,9.79
0.13,-0.01,0.04,0.01,-0.14,9.80
0.02,0.05,0.01,-0.01,-0.09,9.82
-0.04,0.03,0.01,-0.04,-0.12,9.83
-0.02,-0.03,0.04,0.02,-0.17,9.81
0.01,0.00,0.04,0.00,-0.19,9.76
0.05,0.05,0.01,-0.00,-0.14,9.77
0.08,0.06,0.01,-0.02,-0.11,9.80
0.03,-0.01,0.02,0.01,-0.07,9.85
-0.06,0.01,0.03,-0.01,-0.09,9.79
-0.10,-0.00,0.01,-0.00,-0.12,9.77
-0.03,0.01,0.04,0.02,-0.18,9.80
0.16,0.02,0.05,-0.01,-0.14,9.80
0.21,-0.00,0.05,-0.02,-0.05,9.79
0.11,-0.06,0.06,-0.02,0.03,9.79
-0.07,-0.07,0.05,0.02,0.01,9.81
-0.22,-0.01,0.08,0.01,-0.22,9.83
-0.10,-0.00,0.10,-0.01,-0.29,9.84
0.08,-0.01,0.11,-0.03,-0.26,9.86
0.20,-0.03,0.10,-0.03,-0.16,9.88
-0.19,-0.01,0.09,0.00,-0.04,9.85
-0.40,0.01,0.10,-0.00,-0.18,9.82
-0.36,0.02,0.12,-0.02,-0.36,9.80
-0.06,0.03,0.12,-0.05,-0.42,9.78
0.28,-0.03,0.05,-0.03,-0.11,9.81
-0.01,-0.02,0.03,-0.02,-0.02,9.83
-0.35,-0.01,0.01,-0.03,-0.13,9.79
-0.40,-0.05,0.01,-0.02,-0.33,9.75
0.36,-0.05,0.01,-0.03,-0.34,9.69
0.43,-0.01,0.01,-0.01,-0.12,9.77
0.16,-0.02,-0.02,-0.03,0.01,9.82
-0.24,-0.07,-0.02,-0.04,-0.07,9.83
0.08,-0.11,0.01,-0.01,-0.37,9.66
0.59,-0.07,0.04,0.02,-0.23,9.65
0.76,-0.01,0.00,0.03,0.06,9.72
0.38,0.03,-0.01,0.01,0.25,9.81
-0.49,0.04,0.00,0.02,-0.15,9.81
-0.18,0.08,0.05,0.02,-0.38,9.78
0.49,0.10,0.07,0.00,-0.32,9.81
0.82,0.09,0.08,-0.02,-0.01,9.89
-0.21,-0.05,0.09,-0.01,0.25,9.97
-0.59,-0.10,0.08,0.01,-0.04,9.86
-0.25,-0.08,0.07,0.03,-0.30,9.74
0.43,-0.06,0.10,0.03,-0.25,9.69
0.58,0.01,0.15,-0.00,0.40,9.87
-0.08,-0.04,0.11,-0.03,0.44,9.88
-0.49,-0.11,0.09,-0.01,0.20,9.80
-0.28,-0.11,0.08,0.02,-0.09,9.68
0.76,0.09,0.13,0.04,0.11,9.76
0.60,0.12,0.12,-0.03,0.38,9.88
0.07,0.05,0.07,-0.06,0.44,9.95
-0.30,-0.03,0.04,-0.07,0.25,9.90
0.33,-0.04,0.06,0.02,0.01,9.75
0.72,0.05,0.06,0.01,0.21,9.77
0.64,0.07,0.06,-0.01,0.46,9.84
0.24,0.02,0.07,-0.03,0.59,9.87
-0.12,-0.06,0.00,-0.02,0.32,9.75
0.21,-0.03,0.02,0.01,0.26,9.70
0.54,0.05,0.05,0.01,0.38,9.73
0.54,0.07,0.04,0.00,0.56,9.83
-0.15,-0.00,0.03,-0.03,0.53,9.92
-0.23,-0.02,0.03,-0.02,0.32,9.88
0.06,0.00,0.03,-0.02,0.20,9.86
0.42,0.01,0.04,-0.01,0.28,9.87
0.38,-0.08,0.07,-0.03,0.68,9.91
0.05,-0.13,0.07,-0.02,0.68,9.85
-0.06,-0.16,0.06,0.01,0.57,9.75
0.18,-0.16,0.10,0.03,0.50,9.67
0.75,-0.03,0.10,0.03,0.79,9.70
0.62,-0.03,0.13,-0.01,0.94,9.74
0.52,-0.06,0.15,0.01,0.84,9.79
0.40,-0.12,0.15,0.07,0.73,9.77
0.42,0.11,0.15,0.02,0.83,9.86
0.31,0.12,0.13,-0.00,0.78,9.96
0.16,0.09,0.13,-0.02,0.67,9.98
0.12,0.05,0.14,-0.01,0.59,9.99
0.51,-0.03,0.14,-0.04,0.72,9.92
0.50,-0.11,0.12,-0.01,0.86,9.89
0.40,-0.12,0.12,0.01,0.97,9.83
0.34,-0.10,0.12,0.02,1.01,9.74
0.41,-0.05,0.09,0.04,1.00,9.64
0.52,-0.08,0.09,0.06,1.00,9.66
0.74,-0.04,0.11,-0.00,1.01,9.66
0.99,0.03,0.11,-0.01,1.04,9.71
0.60,0.04,0.09,-0.02,1.13,9.95
0.32,0.05,0.06,-0.02,1.12,9.95
0.09,0.04,0.05,-0.03,0.96,9.93
0.18,0.04,0.06,-0.01,0.80,9.91
0.98,0.06,0.07,-0.05,1.05,9.88
1.14,-0.08,0.06,-0.08,1.25,9.77
1.12,-0.22,0.06,-0.03,1.35,9.74
1.25,-0.19,0.07,0.07,1.43,9.75
1.02,0.10,0.12,0.14,1.58,9.66
0.62,0.30,0.13,0.12,1.62,9.69
0.19,0.46,0.14,0.08,1.55,9.83
0.03,0.52,0.13,0.02,1.33,9.94
0.55,0.26,0.19,-0.08,1.10,10.05
0.78,0.13,0.18,-0.05,1.24,10.14
0.73,0.01,0.18,-0.02,1.40,10.13
0.45,-0.06,0.17,-0.00,1.48,10.02
0.37,0.03,0.18,0.05,1.44,9.74
0.61,0.13,0.18,0.06,1.51,9.69
0.79,0.16,0.17,0.08,1.63,9.72
0.87,0.21,0.19,0.00,1.72,9.73
0.59,0.17,0.17,-0.00,1.80,9.82
0.37,0.15,0.17,-0.02,1.78,9.81
0.21,0.09,0.14,-0.01,1.66,9.75
0.28,0.14,0.14,0.02,1.50,9.75
0.66,0.31,0.18,-0.03,1.47,9.85
0.78,0.29,0.17,-0.08,1.59,9.94
0.80,0.12,0.16,-0.11,1.71,9.94
0.83,-0.08,0.17,-0.08,1.80,9.90
0.87,-0.13,0.19,0.03,1.89,9.65
0.98,0.07,0.22,0.09,1.89,9.67
1.06,0.27,0.25,0.09,1.92,9.73
0.94,0.33,0.26,0.02,1.97,9.80
0.44,0.32,0.28,-0.07,2.05,10.07
-0.05,0.19,0.26,-0.10,1.84,10.09
-0.25,0.09,0.23,-0.07,1.52,10.03
0.02,0.08,0.23,-0.03,1.31,9.98
0.72,0.08,0.26,-0.08,1.53,10.01
0.56,-0.04,0.23,-0.12,1.74,9.99
0.30,-0.14,0.20,-0.09,1.83,9.91
0.19,-0.19,0.21,-0.04,1.80,9.78
0.61,-0.08,0.20,0.05,1.84,9.60
0.68,0.02,0.22,0.04,1.99,9.58
0.47,0.11,0.24,0.03,2.07,9.62
0.20,0.21,0.25,0.05,2.01,9.68
-0.01,0.36,0.31,0.07,1.64,9.77
0.16,0.42,0.33,0.02,1.47,9.85
0.41,0.39,0.34,0.01,1.44,9.92
0.59,0.31,0.34,-0.01,1.55,9.98
0.55,0.02,0.42,0.02,1.82,9.90
0.33,0.00,0.42,0.12,1.84,9.80
0.27,0.13,0.44,0.10,1.78,9.58
0.44,0.27,0.47,0.09,1.78,9.43
0.75,0.50,0.50,0.10,2.07,9.48
0.41,0.54,0.49,0.05,2.12,9.54
0.01,0.60,0.50,0.05,2.00,9.61
-0.11,0.64,0.48,0.02,1.71,9.59
0.61,0.64,0.45,-0.09,1.41,9.66
0.93,0.56,0.45,-0.11,1.53,9.81
0.80,0.41,0.42,-0.11,1.70,9.96
0.58,0.28,0.38,-0.11,1.75,9.98
0.72,-0.05,0.32,-0.17,1.67,9.70
0.98,-0.06,0.30,-0.04,1.75,9.71
1.05,-0.00,0.33,0.07,1.91,9.73
0.86,0.13,0.35,0.06,2.02,9.74
0.26,0.36,0.41,0.01,1.84,9.87
0.16,0.50,0.39,-0.00,1.71,10.02
0.21,0.50,0.41,-0.09,1.60,10.13
0.25,0.34,0.45,-0.18,1.50,10.20
0.21,0.07,0.51,-0.01,1.48,10.37
0.14,0.07,0.51,-0.10,1.52,10.24
0.06,0.03,0.49,-0.18,1.58,10.07
0.07,-0.07,0.47,-0.19,1.67,9.96
-0.11,-0.03,0.47,0.06,1.83,9.99
-0.32,0.03,0.47,-0.01,1.82,9.90
-0.46,-0.00,0.48,-0.08,1.77,9.83
-0.39,-0.07,0.49,-0.09,1.71,9.86
-0.32,-0.11,0.48,-0.13,1.64,9.93
-0.57,-0.30,0.44,-0.09,1.50,9.96
-0.61,-0.44,0.43,-0.08,1.31,9.93
-0.30,-0.41,0.44,-0.04,1.20,9.85
0.54,-0.57,0.50,-0.21,1.52,9.71
0.28,-0.66,0.44,-0.02,1.68,9.81
-0.06,-0.53,0.41,0.12,1.67,9.78
-0.12,-0.34,0.46,0.00,1.51,9.51
0.70,-0.20,0.50,0.02,1.50,9.52
0.89,-0.07,0.49,0.11,1.73,9.72
0.55,0.08,0.49,0.02,1.86,9.84
-0.06,0.08,0.49,-0.08,1.74,9.89
-0.07,-0.04,0.47,0.01,1.14,10.02
0.49,0.01,0.51,0.00,1.14,10.09
0.74,-0.05,0.54,-0.13,1.36,10.13
0.38,-0.31,0.53,-0.12,1.57,10.20
-0.41,-0.27,0.57,0.01,1.40,10.03
-0.17,-0.25,0.58,-0.07,1.29,9.81
0.25,-0.35,0.58,-0.02,1.40,9.71
0.38,-0.34,0.61,0.06,1.63,9.67
-0.36,-0.08,0.67,0.10,1.74,9.51
-0.48,0.02,0.67,0.00,1.51,9.42
-0.26,0.12,0.65,0.09,1.30,9.45
0.13,0.33,0.69,0.07,1.26,9.64
0.14,0.24,0.65,-0.15,1.29,9.86
0.09,0.00,0.65,-0.08,1.22,9.99
0.31,-0.10,0.66,-0.08,1.21,9.91
0.55,-0.22,0.67,-0.11,1.28,9.89
0.41,-0.29,0.59,-0.01,1.53,9.89
0.17,-0.17,0.61,-0.01,1.56,9.89
0.19,-0.04,0.63,-0.08,1.53,9.90
0.08,-0.11,0.62,0.01,1.54,9.97
-0.12,-0.03,0.68,-0.12,1.49,10.08
-0.29,-0.01,0.68,-0.05,1.42,10.16
-0.37,0.04,0.66,-0.05,1.30,10.23
-0.50,0.16,0.68,-0.12,1.23,10.21
-0.51,0.05,0.71,-0.12,1.20,10.15
-0.50,-0.03,0.74,-0.03,1.27,10.22
-0.63,0.03,0.76,-0.07,1.35,10.14
-0.92,0.01,0.76,-0.12,1.37,9.92
-0.88,-0.21,0.81,-0.13,1.27,9.52
-0.73,-0.12,0.77,0.04,1.32,9.44
-0.69,0.09,0.85,0.14,1.43,9.50
-0.84,0.13,0.89,-0.06,1.44,9.33
-0.87,-0.05,0.90,0.01,1.15,9.39
-0.51,-0.02,0.86,-0.01,1.04,9.37
-0.15,0.03,0.90,-0.09,1.04,9.43
0.02,-0.06,0.90,-0.05,1.06,9.50
0.37,-0.14,0.88,-0.14,1.16,9.56
0.45,-0.27,0.89,-0.11,1.16,9.53
0.65,-0.28,0.91,0.06,1.19,9.71
0.74,-0.10,0.89,-0.02,1.27,9.68
0.63,0.10,0.88,-0.07,1.43,9.88
0.53,0.01,0.91,-0.08,1.47,10.04
0.10,0.03,0.94,-0.02,1.40,10.25
-0.25,0.10,0.91,-0.12,1.21,10.25
-0.24,0.07,0.84,-0.17,0.95,10.38
-0.22,0.00,0.78,-0.19,1.06,10.41
-0.46,-0.19,0.82,-0.07,1.19,10.51
-0.78,-0.31,0.86,-0.04,1.18,10.45
-1.10,-0.38,0.86,0.05,0.88,9.99
-0.69,-0.18,0.86,-0.04,0.92,9.74
-0.42,-0.10,0.84,-0.02,1.20,9.67
-0.41,0.00,0.89,0.14,1.45,9.80
-1.32,0.26,0.96,0.16,1.28,9.57
-1.11,0.48,1.00,0.16,0.98,9.53
-0.63,0.69,1.01,0.08,0.89,9.44
-0.13,0.82,1.03,0.01,1.03,9.47
-0.38,0.75,1.04,0.18,1.34,9.67
-0.74,0.90,1.04,0.22,1.23,9.63
-0.82,1.02,1.10,0.18,0.99,9.43
-0.41,1.02,1.12,0.07,0.86,9.25
0.35,1.11,1.09,0.13,1.29,9.58
0.04,1.20,1.04,-0.01,1.57,9.69
-0.54,0.95,1.01,-0.12,1.59,9.71
-0.84,0.62,1.02,-0.03,1.36,9.78
-0.52,0.76,1.05,0.03,1.05,10.08
-0.45,0.68,1.03,-0.31,1.11,10.04
-0.57,0.29,0.96,-0.41,1.16,10.18
-0.69,0.01,0.95,-0.19,1.12,10.43
-0.93,-0.09,0.98,-0.20,0.90,10.17
-0.75,-0.27,1.03,-0.20,0.80,9.98
-0.36,-0.32,1.04,-0.20,0.84,9.86
-0.05,-0.19,1.04,-0.20,1.00,9.76
-0.08,-0.11,0.97,-0.32,1.32,9.64
-0.28,-0.14,0.96,-0.15,1.32,9.68
-0.29,-0.04,0.97,-0.12,1.18,9.55
0.06,0.05,1.05,-0.19,1.07,9.40
0.43,0.19,1.00,-0.08,1.24,9.75
0.18,0.35,0.99,-0.13,1.30,9.86
-0.00,0.27,0.96,-0.41,1.18,9.67
0.12,-0.01,0.92,-0.41,1.03,9.60
0.77,-0.15,0.88,-0.00,1.16,9.80
0.75,-0.14,0.92,-0.18,1.32,9.67
0.32,-0.30,0.82,-0.23,1.34,9.61
0.13,-0.42,0.69,-0.17,1.23,9.52
0.74,-0.18,0.64,-0.12,1.26,9.80
0.62,-0.35,0.61,-0.18,1.45,9.94
0.20,-0.65,0.59,-0.10,1.43,10.15
-0.22,-0.78,0.55,-0.07,1.22,10.14
0.18,-0.51,0.52,-0.08,0.87,10.10
0.45,-0.49,0.50,-0.12,1.01,10.13
0.32,-0.41,0.45,0.00,1.19,10.29
-0.08,-0.26,0.47,0.11,1.28,10.31
-0.43,0.05,0.49,-0.10,1.05,9.90
-0.12,0.03,0.50,-0.13,0.98,9.72
0.34,0.12,0.46,-0.00,1.09,9.77
0.44,0.28,0.49,0.14,1.31,9.87
-0.24,0.30,0.46,0.01,1.39,9.70
-0.40,0.16,0.50,-0.01,1.10,9.62
-0.09,0.13,0.50,-0.02,0.89,9.63
0.51,0.13,0.55,0.02,0.87,9.76
0.80,-0.40,0.49,-0.14,1.28,9.92
0.48,-0.67,0.50,0.04,1.27,10.02
0.23,-0.76,0.50,0.08,1.11,9.84
0.53,-0.66,0.55,0.09,0.97,9.59
1.34,-0.19,0.63,0.08,1.36,9.46
1.09,0.14,0.65,0.19,1.65,9.60
0.40,0.48,0.60,0.13,1.68,9.60
-0.21,0.72,0.58,-0.03,1.39,9.41
0.47,1.02,0.58,0.10,0.79,9.49
1.14,1.10,0.61,0.03,0.96,9.64
1.26,0.99,0.63,-0.10,1.30,9.79
0.71,0.73,0.56,-0.16,1.44,9.98
-0.17,0.47,0.46,-0.10,0.92,10.01
0.48,0.30,0.44,-0.18,0.71,9.94
1.19,-0.06,0.45,-0.16,0.92,10.00
1.48,-0.29,0.48,-0.11,1.36,10.20
0.07,-0.48,0.50,-0.08,1.57,10.18
-0.24,-0.51,0.47,-0.20,1.30,9.89
0.01,-0.52,0.47,-0.17,1.05,9.74
0.56,-0.30,0.49,-0.09,1.07,9.82
0.16,-0.03,0.56,0.04,1.46,10.06
-0.40,0.04,0.61,-0.06,1.33,9.99
-0.64,0.19,0.63,-0.16,1.00,9.78
-0.19,0.34,0.59,-0.15,0.79,9.58
0.89,0.62,0.61,-0.02,1.22,9.60
0.66,0.70,0.61,-0.01,1.50,9.50
0.12,0.67,0.66,0.09,1.41,9.39
0.08,0.74,0.64,0.11,1.16,9.11
1.34,1.07,0.72,0.09,1.14,9.02
1.53,1.01,0.66,-0.00,1.35,9.15
1.22,0.85,0.59,0.05,1.47,9.46
0.87,0.82,0.58,0.08,1.32,9.62
1.24,0.29,0.62,-0.10,0.89,9.76
1.86,0.03,0.63,-0.01,0.92,10.07
2.07,-0.10,0.60,-0.06,1.18,10.22
1.96,-0.13,0.62,-0.24,1.41,10.29
1.00,-0.62,0.54,-0.05,1.40,10.50
0.92,-0.55,0.56,0.01,1.24,10.47
0.99,-0.44,0.57,-0.20,1.07,10.22
1.23,-0.48,0.54,-0.33,1.10,10.11
1.14,-0.45,0.52,-0.11,1.53,10.48
0.56,-0.41,0.52,-0.09,1.55,10.42
0.13,-0.43,0.56,-0.23,1.26,10.10
0.02,-0.36,0.52,-0.15,0.91,9.91
1.19,0.42,0.52,-0.12,0.98,9.80
1.24,0.59,0.51,-0.12,1.35,10.01
0.64,0.51,0.46,-0.14,1.53,10.00
0.09,0.41,0.44,-0.15,1.34,9.85
0.88,0.50,0.38,-0.13,0.91,9.53
1.62,0.40,0.39,-0.16,1.20,9.56
1.65,0.19,0.38,-0.07,1.58,9.79
0.80,0.07,0.38,0.10,1.74,9.99
-0.11,0.08,0.38,-0.13,1.10,9.65
0.47,-0.07,0.40,-0.19,0.89,9.59
1.20,-0.21,0.37,-0.10,1.10,9.73
1.35,-0.18,0.33,0.12,1.51,10.05
-0.51,-0.04,0.36,-0.09,1.54,9.88
-0.79,-0.07,0.33,-0.04,1.10,9.76
-0.10,0.09,0.31,0.03,0.83,9.76
0.74,0.42,0.36,0.07,1.04,9.99
-0.11,0.39,0.31,-0.11,1.88,10.38
-1.25,0.19,0.30,-0.08,1.61,10.35
-1.63,0.14,0.31,0.17,1.00,10.09
-0.91,0.35,0.37,0.18,0.57,9.79
1.05,0.83,0.39,0.11,1.24,9.72
0.46,0.98,0.34,0.19,1.75,9.94
-0.56,1.18,0.34,0.18,1.72,9.86
-1.22,1.27,0.36,0.14,1.22,9.69
0.40,1.44,0.44,0.13,0.69,9.66
1.22,1.43,0.49,0.01,1.11,9.88
1.17,1.19,0.44,-0.27,1.62,9.97
0.38,0.60,0.37,-0.32,1.86,10.02
-0.50,-0.32,0.35,-0.12,1.23,9.82
0.07,-0.57,0.37,-0.12,0.92,9.65
0.96,-0.67,0.42,-0.22,1.01,9.63
1.33,-0.88,0.42,-0.48,1.41,9.62
0.21,-1.61,0.37,-0.22,1.83,9.92
-0.28,-1.71,0.37,-0.26,1.49,9.63
-0.17,-1.50,0.42,-0.06,1.09,9.46
0.41,-0.99,0.43,-0.01,1.00,9.33
0.91,0.19,0.53,-0.07,1.81,9.86
-0.11,0.37,0.45,-0.22,1.99,9.92
-0.93,0.48,0.46,-0.10,1.66,9.92
-1.01,0.74,0.46,0.08,1.08,9.82
0.56,1.48,0.46,-0.07,0.96,9.61
0.82,1.47,0.35,-0.17,1.35,9.73
0.45,1.28,0.29,-0.19,1.66,10.02
-0.33,1.01,0.24,-0.04,1.58,10.36
-0.25,0.10,0.12,-0.35,0.90,10.09
0.70,-0.54,0.08,-0.32,0.85,10.04
1.43,-1.00,-0.02,-0.29,1.22,10.12
1.44,-1.27,-0.01,-0.22,1.70,10.23
-0.24,-1.92,-0.05,-0.15,1.71,10.01
-0.42,-1.87,-0.08,0.02,1.21,9.94
0.22,-1.53,-0.12,-0.04,0.96,9.75
1.12,-1.16,-0.02,-0.15,1.15,9.91
0.23,-1.01,-0.08,-0.26,1.98,10.39
-0.89,-1.01,-0.05,-0.06,1.68,10.44
-1.38,-0.82,-0.05,0.03,1.14,10.13
-0.68,-0.43,0.02,0.06,0.83,9.90
0.35,0.36,-0.00,-0.06,1.53,9.94
-0.44,0.38,0.01,-0.09,1.85,9.99
-1.42,0.18,-0.01,0.02,1.71,9.93
-1.62,0.05,-0.05,0.12,1.28,9.65
0.10,-0.07,0.08,0.08,0.98,9.05
0.81,-0.07,0.07,0.15,1.44,9.09
0.44,-0.00,0.11,0.29,1.84,9.28
-0.44,0.19,0.10,0.29,1.82,9.29
-0.87,0.52,0.11,0.24,1.06,9.19
0.01,0.61,0.14,0.06,0.93,9.11
0.73,0.57,0.20,0.13,1.16,9.41
0.78,0.60,0.17,0.19,1.58,9.73
-0.67,0.47,0.22,0.22,1.48,9.64
-0.48,0.70,0.18,0.34,1.13,9.58
0.27,1.12,0.25,0.21,1.04,9.46
0.76,1.42,0.31,0.25,1.26,9.76
0.08,1.30,0.33,-0.02,1.75,10.13
-0.57,1.09,0.27,0.11,1.50,10.24
-0.36,0.96,0.29,-0.07,1.13,10.04
0.29,0.74,0.33,-0.11,1.00,10.07
0.51,0.17,0.34,-0.22,1.52,10.54
-0.30,-0.15,0.31,-0.25,1.50,10.69
-0.80,-0.67,0.24,-0.38,1.17,10.45
-0.22,-1.18,0.25,-0.41,0.94,10.30
1.07,-1.86,0.27,-0.44,1.45,10.13
0.51,-2.06,0.23,-0.26,1.69,10.23
-0.38,-1.89,0.19,-0.20,1.58,10.03
-0.64,-1.58,0.18,-0.28,1.21,9.56
0.84,-0.72,0.16,-0.20,1.21,9.61
0.99,-0.36,0.16,-0.35,1.71,9.68
0.22,0.02,0.12,-0.24,1.83,9.91
-0.82,0.30,-0.04,-0.11,1.54,9.69
-0.08,1.04,-0.03,0.05,0.70,9.40
0.95,1.32,-0.11,0.01,0.85,9.48
1.37,1.41,-0.07,-0.14,1.30,9.67
1.10,1.31,-0.19,-0.12,1.62,9.93
0.23,0.27,-0.24,-0.27,1.38,9.81
0.58,-0.33,-0.33,-0.21,1.05,9.67
1.22,-0.84,-0.36,0.03,0.96,9.72
1.65,-1.06,-0.43,0.09,1.20,9.85
1.21,-1.63,-0.28,-0.14,1.77,9.99
0.52,-2.10,-0.33,-0.14,1.77,10.10
0.00,-2.29,-0.33,-0.11,1.56,10.16
-0.45,-2.30,-0.35,0.04,1.17,10.13
0.57,-2.05,-0.27,-0.08,0.91,9.87
1.00,-1.73,-0.24,0.19,1.26,10.02
0.61,-1.19,-0.16,0.30,1.58,10.08
-0.06,-0.50,-0.06,0.27,1.59,9.91
-0.34,0.88,-0.15,0.18,1.02,9.40
0.47,1.42,-0.14,0.18,0.97,9.32
1.04,1.70,-0.16,0.15,1.28,9.36
0.82,1.55,-0.18,0.09,1.59,9.44
0.22,0.86,-0.11,0.22,1.20,9.02
0.87,0.79,-0.05,0.29,0.95,8.86
1.77,0.88,-0.02,0.24,1.05,8.89
2.16,0.86,-0.07,0.07,1.41,9.17
0.82,0.16,-0.08,0.25,1.78,10.11
0.19,-0.15,-0.06,0.04,1.34,10.11
0.50,-0.50,0.02,-0.09,0.91,9.95
1.78,-0.69,0.12,0.03,0.93,10.22
1.69,-0.94,0.05,-0.18,1.86,10.32
0.62,-0.94,0.02,-0.03,1.80,10.53
-0.12,-0.68,-0.06,-0.06,1.51,10.46
-0.37,-0.58,-0.06,-0.16,1.21,10.40
0.15,-0.85,-0.03,-0.47,1.18,10.75
0.26,-1.32,0.00,-0.48,1.43,10.91
-0.13,-1.63,-0.01,-0.40,1.60,10.86
-0.77,-1.77,-0.12,-0.36,1.60,10.33
-1.12,-0.95,-0.14,0.10,1.13,9.53
-1.03,-0.25,-0.13,0.07,1.07,9.11
-0.67,0.36,-0.09,0.07,1.19,9.19
-0.36,0.69,-0.21,-0.15,1.52,9.26
-1.43,0.34,-0.26,-0.09,1.52,9.72
-1.65,0.24,-0.34,0.17,1.15,9.80
-1.18,0.43,-0.24,0.16,0.84,9.81
-0.42,0.59,-0.23,0.19,0.91,9.92
-0.33,0.66,-0.16,0.09,1.71,10.57
-1.49,0.50,-0.30,0.16,1.68,10.67
-1.89,0.58,-0.43,0.02,1.54,10.53
-1.88,0.46,-0.33,0.07,1.26,10.26
-1.08,-0.05,-0.23,0.11,1.08,9.69
-0.71,-0.15,-0.18,0.20,1.26,9.33
-0.56,0.03,-0.30,0.15,1.53,9.23
-1.08,0.24,-0.29,0.07,1.68,9.16
-1.80,0.40,-0.37,0.32,1.10,9.50
-1.23,0.54,-0.19,0.36,0.97,9.63
-0.90,0.56,-0.09,0.38,1.00,10.04
-0.73,0.70,-0.10,-0.07,1.19,10.30
-1.02,0.16,-0.09,0.05,1.19,10.20
-0.62,0.24,-0.05,0.31,1.20,10.17
-0.54,0.41,0.07,0.18,1.21,9.69
-0.59,0.54,0.07,0.45,1.24,9.82
-0.46,1.22,0.15,-0.02,1.46,9.65
-0.68,1.16,0.23,-0.09,1.51,9.87
-0.97,0.99,0.17,-0.03,1.39,10.23
-1.21,0.81,0.08,-0.05,1.26,10.20
-0.73,0.09,0.12,-0.33,0.99,9.77
-0.05,-0.30,0.09,-0.37,1.17,9.54
-0.03,-0.53,-0.02,-0.21,1.45,9.52
-0.73,-0.44,-0.11,-0.11,1.66,9.51
-1.88,-0.45,-0.27,-0.23,1.04,9.23
-1.13,-0.44,-0.27,-0.33,0.82,9.31
-0.31,-0.43,-0.27,-0.32,0.89,9.50
-0.03,-0.58,-0.44,-0.43,1.28,9.70
-0.88,-1.03,-0.54,-0.16,1.34,9.44
-0.81,-0.86,-0.58,-0.01,1.01,9.17
0.02,-0.45,-0.60,-0.11,0.90,8.69
0.77,-0.11,-0.65,-0.01,1.13,8.74
0.42,0.32,-0.74,-0.06,1.48,9.36
-0.07,0.30,-0.72,0.00,1.39,9.78
0.12,0.01,-0.71,-0.11,1.17,9.92
0.48,-0.50,-0.68,-0.19,1.06,10.04
0.96,-1.32,-0.68,-0.12,1.05,9.78
1.21,-1.35,-0.68,0.26,1.17,9.87
1.32,-1.00,-0.61,0.45,1.38,9.76
1.12,-0.52,-0.49,0.44,1.61,9.80
-0.51,0.36,-0.34,0.40,1.49,10.18
-0.86,0.73,-0.40,0.15,1.12,10.19
-0.29,0.87,-0.32,0.07,0.83,10.12
0.52,0.74,-0.25,0.10,0.89,10.21
0.75,0.80,-0.12,0.54,1.81,10.42
-0.52,1.04,-0.08,0.56,1.74,10.10
-1.54,1.50,-0.14,0.45,1.45,9.73
-1.64,2.16,-0.04,0.45,1.03,9.51
-0.79,2.69,-0.20,0.12,0.99,9.93
-0.58,2.37,-0.20,-0.09,1.28,10.33
-0.84,1.54,-0.28,-0.25,1.49,10.52
-1.35,0.42,-0.23,-0.47,1.37,10.32
-0.66,-1.09,-0.28,0.05,0.80,9.56
0.35,-0.91,-0.27,0.12,0.80,9.18
0.91,-0.44,-0.31,-0.05,1.11,8.94
0.95,-0.09,-0.36,-0.19,1.57,8.97
-0.61,-0.19,-0.48,-0.28,1.69,9.45
-0.98,-0.25,-0.52,-0.29,1.07,9.46
-0.40,-0.28,-0.57,-0.27,0.62,9.39
0.86,-0.28,-0.52,-0.30,0.60,9.38
2.03,0.33,-0.52,0.04,1.56,10.00
1.26,0.84,-0.51,-0.00,1.80,10.08
-0.00,1.28,-0.55,0.10,1.62,10.16
-0.49,1.81,-0.58,0.11,1.18,10.18
0.36,2.32,-0.60,0.01,0.91,10.56
0.80,1.99,-0.58,-0.38,1.27,10.63
0.34,1.00,-0.57,-0.32,1.50,10.66
-0.26,0.07,-0.58,-0.05,1.45,10.66
-0.48,-0.73,-0.57,-0.11,0.81,9.62
0.31,-0.96,-0.61,0.04,0.82,9.59
0.80,-1.15,-0.54,-0.00,1.14,9.72
0.48,-1.36,-0.55,-0.03,1.47,10.10
-0.59,-2.38,-0.33,-0.24,1.34,10.07
-0.41,-2.73,-0.39,-0.34,0.96,9.77
0.30,-2.74,-0.34,-0.26,0.81,9.50
0.69,-2.57,-0.35,-0.07,0.99,9.51
0.30,-1.78,-0.29,0.20,1.58,9.70
-0.29,-1.39,-0.22,0.18,1.44,9.52
-0.26,-0.80,-0.18,0.14,1.18,9.23
0.28,-0.06,-0.13,0.25,0.94,8.98
1.06,1.94,-0.23,0.30,1.06,8.94
1.21,2.72,-0.35,0.12,1.32,8.90
1.02,2.99,-0.37,0.44,1.40,9.29
0.60,3.21,-0.33,0.55,1.36,9.71
0.65,3.01,-0.41,-0.08,1.03,9.83
0.78,2.24,-0.46,-0.18,0.97,10.21
1.14,1.40,-0.58,-0.35,1.11,10.20
1.42,0.32,-0.58,-0.30,1.32,10.23
0.80,-1.43,-0.70,-0.08,1.44,9.89
0.31,-1.63,-0.60,0.22,1.17,9.83
0.45,-1.23,-0.58,0.31,0.86,9.85
1.05,-0.96,-0.62,-0.15,0.99,9.86
0.70,-1.13,-0.65,-0.05,1.71,10.86
-0.41,-1.23,-0.65,-0.15,1.57,10.73
-0.97,-1.07,-0.57,-0.18,0.99,10.22
-0.49,-0.59,-0.60,0.14,0.53,10.06
0.88,1.22,-0.43,0.38,1.38,10.24
-0.20,1.70,-0.41,0.15,1.83,10.43
-1.62,1.81,-0.46,-0.05,1.67,10.46
-2.46,1.70,-0.54,0.07,1.06,10.46
-0.98,1.26,-0.45,-0.27,0.60,10.29
-0.45,0.40,-0.39,-0.23,0.96,10.32
-0.75,-0.52,-0.39,0.13,1.40,10.60
-1.72,-1.06,-0.39,-0.04,1.47,10.08
-1.50,-1.69,-0.33,0.09,0.75,8.93
-0.44,-1.53,-0.35,-0.05,0.77,8.59
0.21,-1.26,-0.42,0.09,1.00,8.69
0.37,-1.07,-0.33,0.03,1.18,8.88
0.43,-1.57,-0.47,-0.41,1.08,8.82
0.80,-1.46,-0.47,0.05,0.83,9.17
1.19,-0.79,-0.58,0.08,0.73,9.24
1.82,-0.20,-0.51,-0.29,1.02,9.01
1.22,0.51,-0.63,0.20,1.35,9.89
0.62,1.13,-0.57,0.26,1.29,9.89
0.39,1.81,-0.47,0.24,1.03,10.04
0.22,2.08,-0.62,0.03,0.94,10.15
0.30,2.07,-0.64,0.15,1.18,10.81
-0.18,1.75,-0.63,0.12,1.39,11.03
-0.94,1.27,-0.64,-0.16,1.39,10.82
-1.48,0.59,-0.66,0.10,1.02,10.59
-1.03,0.51,-0.59,0.31,0.53,10.31
-0.67,0.49,-0.60,-0.01,0.77,10.10
-0.81,-0.08,-0.58,-0.13,1.05,10.29
-1.41,-0.80,-0.60,0.01,1.13,10.38
-1.94,-1.22,-0.50,0.10,0.41,9.72
-1.53,-1.30,-0.52,0.04,0.24,9.18
-0.63,-1.25,-0.45,0.01,0.36,8.90
0.17,-0.86,-0.41,0.21,0.59,9.05
-0.30,-0.03,-0.49,0.08,1.01,9.35
-0.64,-0.05,-0.47,-0.05,0.82,9.44
-0.07,-0.15,-0.44,-0.14,0.59,9.18
0.81,-0.21,-0.41,-0.09,0.46,9.09
1.51,0.10,-0.53,0.07,0.94,9.08
1.04,0.47,-0.58,0.28,1.07,9.36
0.50,1.03,-0.65,0.11,1.05,9.53
0.22,1.35,-0.60,0.01,1.03,9.87
-0.00,1.13,-0.66,-0.19,0.60,10.63
0.24,0.85,-0.67,-0.43,0.63,10.55
0.63,0.36,-0.76,-0.47,0.70,10.48
0.52,-0.27,-0.95,-0.30,0.91,10.42
-0.41,-0.66,-0.88,0.22,1.05,10.10
-1.06,-0.36,-0.91,0.20,0.92,9.95
-1.70,-0.24,-0.90,0.02,0.59,9.79
-1.55,0.03,-0.92,-0.03,0.33,10.01
-0.95,-0.06,-0.92,-0.18,0.55,10.13
-1.30,-0.28,-0.96,0.06,0.54,10.17
-1.51,-0.20,-0.96,0.22,0.39,9.93
-1.33,0.15,-0.91,0.19,0.30,9.50
-0.77,0.87,-0.94,0.28,0.47,9.65
-0.84,0.98,-0.87,0.08,0.83,9.87
-1.57,0.78,-0.87,-0.03,0.95,10.27
-2.32,0.13,-0.92,-0.19,0.60,10.14
-0.38,-1.28,-0.70,0.07,0.28,9.59
0.07,-1.48,-0.69,0.15,0.58,9.42
-0.23,-1.28,-0.76,0.28,0.85,9.18
-0.61,-0.98,-0.69,0.23,0.86,9.08
-1.12,-0.72,-0.69,0.14,0.47,9.52
-0.78,-0.53,-0.64,0.15,0.32,9.96
-0.29,-0.57,-0.61,-0.19,0.25,10.00
0.18,-1.08,-0.58,-0.61,0.36,9.80
0.54,-1.64,-0.79,0.26,0.31,9.55
1.36,-0.75,-0.69,0.49,0.60,9.26
1.67,0.27,-0.65,0.24,0.93,8.95
0.59,0.79,-0.72,0.41,1.08,9.10
-0.46,2.35,-0.68,0.39,0.35,9.57
0.15,2.76,-0.72,0.18,0.09,10.09
0.97,2.52,-0.73,-0.27,0.25,10.48
1.20,1.72,-0.78,-0.18,0.54,10.95
0.57,0.57,-0.77,-0.02,0.73,10.52
0.27,0.11,-0.81,0.25,0.57,10.24
0.38,0.02,-0.71,0.42,0.46,10.02
0.73,0.32,-0.70,0.49,0.44,9.78
0.77,1.17,-0.66,0.12,1.15,9.76
-0.28,1.06,-0.73,0.00,1.19,9.77
-0.88,1.01,-0.70,0.37,0.86,10.12
-0.64,1.02,-0.72,0.00,0.53,9.73
0.33,0.14,-0.62,0.08,0.64,9.77
0.16,-0.21,-0.59,0.07,0.90,9.72
-0.09,-0.21,-0.57,-0.04,0.98,9.51
-0.66,-0.40,-0.57,-0.02,0.65,9.38
-0.07,-0.62,-0.63,-0.28,0.37,9.18
0.59,-0.92,-0.62,-0.14,0.47,9.30
0.81,-1.31,-0.61,-0.27,0.64,9.21
0.75,-1.50,-0.57,-0.33,0.68,9.18
1.26,-1.63,-0.71,-0.43,0.47,8.87
2.22,-1.81,-0.68,-0.45,0.52,8.84
2.83,-1.66,-0.70,0.06,0.82,9.45
2.39,-1.06,-0.76,0.17,1.11,9.93
0.76,-0.17,-0.87,-0.17,0.82,10.49
0.70,-0.19,-0.89,-0.27,0.56,10.82
1.00,-0.29,-0.95,-0.52,0.52,10.90
1.22,-0.49,-0.94,-0.04,0.64,11.08
-0.05,0.11,-0.93,0.19,0.88,10.80
-0.88,0.91,-1.04,0.10,0.76,10.65
-1.04,1.09,-1.06,0.32,0.59,10.77
-0.49,1.13,-0.96,0.22,0.76,11.00
-2.51,0.86,-1.00,0.24,0.76,11.17
-2.80,0.66,-1.06,-0.02,0.37,10.63
-2.08,0.17,-0.98,0.19,0.07,10.24
-1.59,-0.10,-0.98,0.38,0.12,10.05
-2.18,0.05,-0.93,0.37,0.45,9.47
-2.76,-0.03,-0.90,0.45,0.13,9.32
-2.98,0.16,-0.90,0.33,-0.15,9.24
-2.30,0.28,-0.90,-0.02,-0.10,8.79
-0.56,-1.03,-0.83,0.10,0.06,8.93
-0.47,-1.03,-0.92,0.38,0.07,8.81
0.25,-0.31,-0.83,0.35,0.17,8.63
1.03,0.32,-0.78,0.15,0.43,8.64
0.31,0.03,-0.97,-0.41,0.89,8.94
0.05,-0.25,-0.92,0.13,0.57,9.31
0.10,0.05,-0.89,0.42,0.15,9.81
0.33,0.58,-0.88,-0.06,-0.07,9.69
1.38,-0.04,-0.82,-0.24,0.20,10.39
1.25,-0.28,-0.83,-0.15,0.54,10.82
0.41,-0.26,-0.81,-0.19,0.70,10.76
-0.42,-0.47,-0.75,-0.03,0.64,10.52
-1.29,-0.43,-0.72,0.19,-0.03,9.76
-0.31,0.16,-0.68,0.39,-0.14,9.48
0.63,0.89,-0.54,0.43,0.34,9.80
0.01,1.23,-0.52,0.10,0.83,9.77
-1.67,1.16,-0.53,0.21,0.45,10.10
-1.61,1.12,-0.55,0.20,-0.19,10.00
-0.99,1.07,-0.49,0.20,-0.46,10.02
0.11,1.08,-0.38,0.04,-0.29,9.98
-0.14,0.62,-0.36,0.12,0.76,10.44
-1.20,0.32,-0.38,0.01,0.72,10.10
-1.61,-0.03,-0.35,0.09,0.27,9.72
-1.08,-0.26,-0.32,-0.02,-0.07,9.37
0.23,-0.07,-0.36,0.25,0.03,9.21
0.89,-0.01,-0.22,-0.03,0.54,9.15
0.46,-0.01,-0.19,-0.10,1.00,9.50
-0.66,-0.06,-0.31,-0.11,1.00,9.69
-1.06,0.14,-0.36,-0.10,0.04,9.50
-0.68,0.12,-0.38,-0.35,-0.26,9.24
0.28,0.04,-0.48,-0.25,-0.22,9.23
1.04,0.09,-0.49,0.03,0.20,9.38
-0.52,0.73,-0.55,-0.21,0.70,9.33
-1.07,0.63,-0.59,-0.11,0.22,9.10
-0.28,0.75,-0.57,0.09,-0.17,9.51
0.39,1.28,-0.59,0.14,-0.08,10.06
0.47,0.82,-0.53,-0.43,0.69,10.56
-0.04,-0.15,-0.47,-0.51,0.66,10.49
-0.43,-0.73,-0.54,-0.10,0.39,10.13
0.01,-0.44,-0.42,0.40,0.12,9.97
0.15,0.86,-0.38,0.24,-0.04,9.59
0.42,1.49,-0.38,0.19,0.21,10.04
0.45,1.70,-0.28,0.21,0.51,10.79
-0.37,1.24,-0.25,-0.30,0.70,11.21
-1.45,-0.76,-0.16,-0.25,0.02,10.83
-0.91,-1.31,-0.07,0.06,-0.21,10.37
-0.06,-1.37,0.02,-0.13,-0.19,9.71
0.60,-1.52,0.00,-0.10,0.33,9.29
-0.42,-1.46,0.06,-0.02,1.03,9.24
-1.57,-1.12,0.09,0.04,0.60,9.07
-1.70,-0.62,0.23,0.40,-0.11,9.18
-0.83,-0.02,0.19,-0.01,-0.44,8.96
1.48,0.22,0.19,-0.33,-0.12,9.24
1.94,0.13,-0.03,-0.37,0.46,9.26
1.44,-0.08,-0.01,-0.22,0.79,9.30
0.41,-0.10,-0.07,-0.23,0.55,9.20
1.03,-0.31,-0.08,0.02,-0.38,8.56
2.54,0.01,-0.10,0.06,-0.23,8.70
3.31,0.48,-0.08,0.07,0.39,9.19
3.00,0.77,-0.11,0.13,0.92,9.79
0.71,0.63,-0.20,-0.34,0.69,10.53
0.41,0.30,-0.22,-0.23,0.14,10.62
1.02,-0.03,-0.08,0.15,-0.27,10.85
1.92,-0.03,0.01,0.17,-0.11,10.82
1.12,0.11,0.08,-0.00,0.76,10.66
-0.03,0.19,0.01,0.15,0.77,10.81
-0.95,0.57,0.05,0.18,0.44,10.78
-1.25,0.79,0.08,0.11,-0.03,10.54
0.09,0.04,0.37,-0.15,0.15,10.40
0.01,-0.31,0.35,-0.05,0.66,10.36
-0.75,-0.49,0.44,0.17,0.85,10.38
-1.68,-0.67,0.47,-0.25,0.54,9.71
-1.07,-1.03,0.53,0.21,-0.22,9.35
-0.20,-0.46,0.53,0.23,-0.20,9.53
0.07,-0.10,0.55,-0.32,0.21,9.40
-0.07,-0.41,0.65,-0.56,0.44,9.72
-0.19,-1.41,0.52,-0.08,0.24,9.58
0.31,-0.65,0.84,0.45,0.10,9.73
0.17,0.74,0.67,0.22,0.22,9.36
0.01,1.82,0.66,-0.08,0.48,9.11
0.04,2.44,0.56,-0.16,0.55,9.44
-0.00,2.36,0.74,0.06,0.67,9.79
-0.36,2.27,0.76,0.03,0.59,10.02
-1.02,1.84,0.74,-0.26,0.43,9.94
-0.63,0.62,0.79,-0.44,-0.13,10.05
0.01,0.14,0.79,-0.28,0.13,10.39
-0.09,-0.37,0.98,-0.38,0.47,10.59
-0.97,-1.10,0.98,-0.47,0.59,10.52
-1.78,-1.87,1.11,-0.04,0.06,10.23
-1.15,-1.26,1.19,-0.00,-0.06,10.03
-1.07,-0.95,1.33,-0.42,0.19,9.72
-1.25,-1.04,1.40,-0.66,0.34,9.70
-1.45,-1.30,1.57,-0.04,0.05,9.92
-0.90,-0.87,1.70,-0.33,-0.11,9.50
-0.13,-0.76,1.81,-0.24,0.05,9.30
0.45,-0.57,2.13,-0.21,0.24,9.48
-1.10,0.65,2.02,0.18,0.55,9.86
-1.81,1.16,2.28,-0.25,0.15,9.96
-1.76,1.04,2.21,-0.63,-0.25,9.63
-0.75,0.61,2.32,-0.22,-0.19,9.92
0.19,0.42,2.51,-0.34,0.33,9.52
-0.50,0.81,2.62,0.22,0.64,9.96
-1.20,1.25,2.81,-0.26,0.38,9.41
-1.10,1.29,2.66,-0.41,-0.02,8.94
1.22,1.13,3.22,-0.14,-0.07,9.09
1.37,1.65,3.11,0.21,0.51,9.49
0.56,2.06,3.54,-0.19,0.64,9.54
-0.41,2.02,3.51,-0.71,0.13,9.28
0.83,1.49,3.82,-0.39,-0.57,9.78
1.76,1.25,3.91,-0.44,-0.32,9.85
1.60,1.08,4.03,-0.33,0.30,10.27
0.59,0.70,4.24,-0.76,0.43,9.87
-0.41,0.79,4.43,-0.22,-0.18,10.09
0.14,0.97,4.69,-0.70,-0.37,9.80
0.70,0.87,4.67,-0.45,-0.04,10.21
0.53,0.56,4.95,-0.55,0.42,10.25
-0.72,0.08,5.19,-0.45,0.11,9.99
-1.09,0.55,5.34,-0.48,-0.21,10.12
-0.76,0.85,5.39,-1.13,-0.48,9.71
0.01,0.74,5.56,-0.70,-0.39,10.45
-0.35,0.17,5.83,-1.35,0.27,10.66
-1.27,-0.34,5.88,-0.91,0.29,10.60
-1.55,-0.58,6.00,-1.27,-0.08,9.49
-1.30,-0.85,6.04,-1.23,-0.44,8.34
0.30,1.07,6.35,-0.22,-0.42,8.61
0.89,2.29,6.40,-0.43,0.10,8.71
0.34,2.81,6.68,-0.76,0.46,9.26
-0.91,2.73,6.71,-1.31,0.15,9.64
-0.74,2.63,6.75,-1.02,-0.52,10.83
-0.04,2.13,6.81,-1.55,-0.68,10.71
0.53,1.27,6.74,-1.09,-0.21,10.79
0.18,0.63,7.07,-0.76,0.21,10.83
-1.65,0.61,7.15,-0.88,-0.00,10.22
-1.91,0.47,7.29,-1.27,-0.48,10.19
-1.36,0.03,7.15,-1.62,-0.61,9.93
-0.77,-0.65,7.32,-1.14,-0.36,10.35
-0.79,-1.52,7.48,-1.18,0.05,9.50
-0.95,-1.41,7.78,-0.89,-0.12,9.43
-0.93,-0.99,7.81,-1.23,-0.47,8.95
-0.40,-0.48,7.75,-1.00,-0.52,8.97
0.69,0.44,8.03,-1.35,-0.12,9.45
0.23,0.56,8.04,-1.18,0.03,9.83
-0.18,0.39,8.30,-1.31,-0.31,9.81
0.08,0.45,8.19,-1.36,-0.73,9.51
1.95,1.11,8.47,-1.38,-0.57,9.43
2.27,1.08,8.31,-1.48,-0.01,9.56
1.67,0.88,8.43,-1.19,0.44,10.15
0.35,0.68,8.40,-1.35,0.29,10.18
-0.25,0.24,8.50,-1.65,-0.43,10.04
0.39,-0.42,8.42,-1.71,-0.53,9.71
1.06,-0.73,8.51,-1.18,-0.08,9.95
0.80,-0.54,8.67,-1.10,0.30,9.92
-1.07,0.02,8.55,-1.21,-0.01,9.64
-1.17,0.40,8.52,-1.31,-0.56,9.68
-0.35,0.71,8.49,-1.40,-0.75,9.81
0.64,0.53,8.68,-1.46,-0.64,10.07
0.55,-0.02,8.69,-1.16,0.02,9.93
0.18,-0.03,8.85,-1.41,-0.18,9.39
0.33,0.21,8.64,-1.32,-0.47,9.22
0.81,0.33,8.67,-1.21,-0.55,9.34
1.63,0.42,8.75,-1.21,-0.02,10.13
1.11,-0.08,8.90,-1.41,0.18,10.19
0.57,-0.64,8.83,-1.52,0.13,10.03
0.31,-0.83,8.92,-1.23,-0.07,10.16
0.36,-0.24,8.85,-1.54,-0.29,10.15
0.56,-0.28,8.91,-1.54,-0.22,10.22
0.32,-0.37,8.84,-1.17,-0.07,10.47
-0.46,0.13,8.89,-1.38,-0.37,9.77
-0.04,0.45,8.85,-1.27,-0.60,9.76
0.59,0.73,8.82,-1.37,-0.54,9.64
0.87,1.16,8.72,-1.25,-0.21,9.96
0.56,1.44,8.78,-1.17,0.03,10.12
-0.08,1.00,8.67,-1.48,-0.21,9.57
0.05,0.85,8.63,-1.17,-0.51,9.31
1.12,1.16,8.64,-1.27,-0.56,9.01
1.92,1.26,8.65,-1.35,-0.30,9.03
1.20,1.20,8.49,-1.12,0.46,9.72
0.08,1.37,8.55,-0.99,0.21,10.04
-0.68,1.68,8.56,-1.29,-0.26,10.30
-0.44,1.49,8.54,-1.85,-0.62,10.10
0.73,0.35,8.45,-1.15,0.01,10.99
-0.20,0.36,8.52,-1.35,0.53,10.63
-1.76,0.06,8.50,-1.47,0.41,10.34
-2.55,-0.28,8.44,-1.33,-0.14,10.32
-1.82,-0.45,8.56,-1.54,-0.51,10.22
-1.29,-0.77,8.61,-1.68,-0.14,9.98
-1.47,-1.52,8.54,-1.61,0.17,9.60
-2.08,-1.76,8.59,-1.39,0.20,9.35
-2.82,-0.95,8.63,-1.31,-0.39,8.70
-2.31,-0.58,8.65,-1.44,-0.63,8.53
-1.45,-0.38,8.57,-1.41,-0.83,8.63
-0.33,-0.10,8.64,-1.36,-0.71,8.83
0.50,0.46,8.68,-1.19,-0.21,9.32
0.39,1.00,8.67,-1.22,-0.18,9.41
0.14,1.49,8.65,-1.19,-0.35,9.79
0.30,1.88,8.61,-1.27,-0.42,10.19
1.28,1.47,8.66,-1.48,-0.15,10.67
1.05,1.18,8.67,-1.20,0.19,10.88
0.31,1.21,8.64,-1.16,0.22,10.65
-0.35,1.31,8.56,-1.08,-0.08,10.38
0.16,1.52,8.53,-1.36,-0.36,10.89
0.00,1.27,8.47,-1.31,-0.05,11.37
-0.53,0.59,8.53,-1.52,0.16,11.11
-1.18,-0.49,8.52,-1.74,-0.00,10.19
-0.86,-1.32,8.56,-0.99,-0.55,9.34
-0.73,-0.60,8.55,-1.07,-0.34,9.08
-0.93,-0.25,8.67,-1.44,-0.15,8.95
-1.12,-0.54,8.60,-1.64,-0.17,8.99
-0.84,-1.13,8.82,-1.31,-0.21,9.07
-0.84,-1.01,8.78,-1.42,-0.26,8.85
-0.52,-0.99,8.84,-1.57,-0.30,8.62
-0.21,-1.15,8.85,-1.69,-0.43,8.39
0.85,-0.48,8.94,-1.29,-0.25,8.88
0.87,-0.13,8.90,-1.39,-0.06,9.07
0.56,0.14,8.90,-1.36,0.13,9.51
0.01,0.04,8.99,-1.69,-0.11,9.49
0.89,-0.47,8.97,-1.35,-0.64,9.64
1.61,-0.23,9.02,-1.40,-0.40,9.70
1.59,0.05,8.94,-1.32,0.10,9.95
0.77,0.06,9.10,-1.41,0.27,10.39
-0.24,-0.58,8.95,-1.47,-0.17,10.63
0.01,-0.59,9.06,-1.46,-0.35,10.95
0.21,-0.83,8.99,-1.58,-0.16,10.79
-0.28,-1.15,9.10,-1.34,0.06,11.14
-1.69,-0.85,9.10,-1.21,-0.02,10.77
-1.90,-0.50,9.22,-1.28,-0.29,10.99
-2.04,-0.51,9.04,-1.62,-0.46,10.67
-2.05,-0.87,9.08,-1.50,-0.47,10.60
-1.71,-0.93,9.15,-1.21,-0.12,10.11
-2.20,-0.87,9.25,-1.16,-0.14,10.09
-2.48,-0.96,9.19,-1.55,-0.31,9.48
-2.06,-1.30,9.24,-1.49,-0.56,9.15
-0.15,-1.44,9.23,-1.49,-0.34,8.71
0.02,-1.25,9.24,-1.21,0.09,8.89
-0.62,-1.14,9.23,-1.26,0.22,8.80
-1.26,-1.19,9.23,-1.66,-0.14,8.53
0.28,-1.02,9.17,-1.30,-0.73,8.91
1.36,-1.03,9.23,-1.42,-0.41,9.18
1.35,-1.02,9.15,-1.60,0.02,9.31
0.90,-1.05,9.08,-1.66,0.11,9.36
0.77,-0.81,9.05,-1.21,-0.43,9.45
1.36,-0.24,9.09,-1.22,-0.33,9.59
1.51,0.10,9.11,-1.46,-0.00,9.84
0.78,-0.15,9.01,-1.66,0.22,10.15
-0.37,-0.76,8.87,-1.58,-0.17,10.35
-0.06,-0.95,8.85,-1.30,-0.26,10.34
0.01,-0.97,8.93,-1.24,-0.03,10.44
-0.80,-0.82,8.86,-1.34,0.08,10.50
-1.66,-0.97,8.87,-1.46,-0.43,10.38
-1.19,-1.16,8.81,-1.49,-0.49,10.11
-0.90,-1.26,8.84,-1.12,-0.37,9.91
-0.83,-1.00,8.87,-0.87,-0.26,9.74
-1.08,-0.38,8.86,-1.26,-0.40,9.57
-1.19,-0.32,8.74,-1.16,-0.57,9.95
-0.34,-0.36,8.82,-1.45,-0.51,9.78
0.15,-0.91,8.81,-1.53,-0.31,9.59
0.26,-1.82,8.77,-1.28,-0.02,9.37
-0.24,-1.61,8.68,-0.96,-0.11,9.57
-0.21,-1.11,8.73,-1.33,-0.33,9.39
0.29,-1.27,8.59,-1.89,-0.55,8.96
1.43,-1.90,8.57,-1.19,0.18,9.51
0.44,-1.54,8.47,-1.11,0.42,9.60
-0.54,-1.19,8.46,-1.35,-0.00,9.45
-0.76,-1.34,8.38,-1.60,-0.59,9.00
1.51,-0.77,8.36,-1.11,-0.42,9.89
1.33,-0.31,8.30,-1.10,0.20,10.34
0.38,-0.15,8.30,-1.41,0.47,10.66
-0.98,-0.65,8.16,-1.79,0.07,10.39
-0.17,-1.51,8.11,-1.06,-0.68,9.94
0.84,-0.97,8.07,-0.80,-0.19,10.03
0.37,-0.51,8.16,-1.11,0.25,10.24
-1.05,-0.79,8.09,-1.34,0.13,10.38
-1.05,-1.67,8.06,-1.32,-0.49,10.08
-0.48,-1.73,8.07,-1.18,-0.33,9.81
-0.56,-1.67,8.12,-1.10,-0.02,10.01
-1.49,-1.67,8.04,-1.16,0.08,10.19
-2.38,-2.08,8.04,-1.32,-0.48,10.04
-1.63,-2.15,8.02,-1.26,-0.40,9.79
-1.30,-2.12,8.16,-0.95,-0.06,9.86
-2.22,-1.76,8.03,-0.95,0.05,9.83
-2.47,-1.05,8.02,-1.25,-0.56,9.36
-1.79,-1.28,7.90,-1.37,-0.71,9.42
-0.79,-1.42,7.91,-1.31,-0.37,9.25
-0.46,-1.54,8.00,-0.96,-0.08,9.34
-1.24,-1.39,7.87,-1.41,-0.10,8.77
-1.15,-1.43,7.79,-1.18,-0.55,8.92
-0.26,-1.42,7.73,-1.04,-0.76,8.97
0.96,-1.48,7.82,-1.28,-0.61,8.86
1.43,-1.38,7.69,-0.95,0.18,9.46
0.80,-1.05,7.69,-1.02,0.21,9.74
-0.05,-0.75,7.58,-1.23,0.00,9.98
-0.23,-0.91,7.49,-1.34,-0.30,10.08
0.77,-1.48,7.38,-1.14,-0.43,10.48
0.63,-1.47,7.37,-1.01,-0.05,10.80
-0.28,-1.56,7.24,-1.31,0.23,10.81
-1.13,-2.02,7.07,-1.44,0.12,10.50
-1.35,-2.30,6.99,-0.76,-0.44,10.40
-1.00,-1.65,7.01,-0.74,-0.29,10.43
-1.18,-1.52,7.00,-1.04,-0.08,10.24
-1.94,-1.80,6.85,-1.24,-0.13,10.02
-1.50,-2.06,6.62,-1.25,-0.47,9.00
-0.79,-2.07,6.49,-1.02,-0.47,8.86
-0.52,-1.88,6.35,-0.53,-0.22,8.88
-0.75,-1.54,6.31,-0.71,-0.11,8.63
-0.56,-1.19,5.99,-0.93,-0.66,8.32
0.73,-1.21,5.88,-0.97,-0.65,8.45
1.56,-1.21,5.71,-0.83,-0.31,8.84
1.50,-1.02,5.51,-0.66,0.06,9.37
0.28,-1.46,5.19,-1.29,-0.18,9.41
0.80,-1.91,5.00,-0.96,-0.42,9.87
1.44,-2.11,4.86,-0.81,-0.23,10.11
1.33,-2.08,4.78,-1.14,0.19,10.05
-0.63,-2.50,4.25,-0.79,0.09,10.44
-0.96,-2.25,4.03,-0.97,-0.27,10.33
-0.61,-2.09,3.76,-1.07,-0.45,10.25
-0.09,-2.34,3.55,-1.12,-0.28,10.31
-1.14,-3.25,3.06,-0.60,0.14,10.43
-1.41,-3.02,2.89,-0.66,-0.04,10.08
-1.52,-3.12,2.72,-0.86,-0.31,9.65
-1.42,-3.37,2.50,-0.73,-0.48,9.69
-1.17,-3.09,2.16,-0.50,-0.44,10.20
-1.00,-3.18,1.94,-0.62,-0.23,10.36
-1.37,-3.82,1.76,-0.76,-0.00,10.33
-1.85,-4.48,1.60,-0.68,-0.05,10.08
-1.67,-4.74,1.38,-0.13,-0.71,9.62
-0.73,-4.30,1.20,-0.24,-0.69,9.40
-0.09,-3.96,1.07,-0.32,-0.35,9.44
-0.05,-3.82,0.92,-0.28,0.00,9.68
-0.99,-3.92,0.59,-0.11,-0.17,9.68
-0.71,-3.61,0.40,0.04,-0.49,9.60
-0.03,-3.17,0.33,0.16,-0.52,9.69
0.37,-2.70,0.21,0.19,-0.23,10.01
-0.87,-2.35,-0.11,0.05,0.11,10.09
-1.31,-2.33,-0.30,0.12,-0.18,10.01
-1.23,-2.21,-0.44,0.16,-0.44,9.86
-0.74,-2.19,-0.54,0.08,-0.52,9.52
0.26,-2.83,-0.92,0.19,-0.35,9.31
0.26,-3.08,-1.08,0.01,-0.22,8.84
0.48,-3.40,-1.26,-0.09,-0.27,8.61
1.00,-3.55,-1.50,0.33,-0.20,8.90
0.20,-3.13,-1.66,0.35,-0.23,9.51
0.29,-3.11,-1.77,0.20,-0.50,9.69
0.89,-3.36,-1.77,0.10,-0.58,10.15
1.22,-3.64,-1.89,0.19,-0.35,10.59
0.60,-3.83,-1.87,0.43,0.14,10.51
-0.07,-4.06,-1.90,0.33,-0.02,9.77
-0.16,-3.91,-1.93,0.51,-0.19,9.44
-0.18,-3.32,-1.93,0.92,-0.26,9.47
-0.40,-1.36,-1.99,0.71,-0.07,9.40
-0.49,-1.23,-2.01,0.27,-0.18,9.26
-0.48,-1.56,-2.13,0.52,-0.23,9.67
-0.36,-1.89,-2.06,0.67,-0.23,9.81
-0.49,-2.46,-2.14,0.49,-0.43,9.57
-0.14,-2.74,-2.10,0.68,-0.47,9.53
0.39,-2.59,-2.11,0.58,-0.25,9.58
0.14,-2.30,-2.10,0.64,0.02,9.79
-0.92,-2.76,-2.24,0.29,-0.32,9.59
-0.36,-3.08,-2.22,0.44,-0.66,9.53
0.80,-3.02,-2.25,0.56,-0.55,9.45
1.45,-2.83,-2.24,0.84,-0.10,9.46
0.29,-1.84,-2.20,0.61,0.29,9.39
-0.72,-0.94,-2.36,0.82,0.06,9.68
-1.04,-0.13,-2.45,0.84,-0.19,10.14
-0.76,0.25,-2.42,0.75,-0.31,10.53
-1.04,-0.25,-2.46,0.39,-0.01,11.32
-1.87,-0.78,-2.54,0.62,-0.07,11.19
-2.10,-0.93,-2.51,0.64,-0.23,10.89
-2.03,-1.00,-2.56,0.61,-0.32,10.30
-2.33,-1.02,-2.67,0.80,-0.24,10.29
-2.61,-1.25,-2.72,0.44,-0.23,9.87
-2.52,-1.69,-2.72,0.62,-0.32,10.02
-2.36,-2.03,-2.78,0.51,-0.46,9.73
-1.12,-2.34,-2.74,0.70,-0.33,9.29
-1.17,-2.31,-2.93,0.68,-0.31,8.96
-1.27,-2.07,-3.11,0.80,-0.24,8.78
-1.20,-1.62,-3.10,0.64,-0.36,8.61
-0.13,-1.25,-3.29,0.67,-0.55,8.73
0.47,-1.19,-3.35,0.52,-0.57,8.78
0.98,-1.07,-3.46,0.71,-0.43,8.95
1.30,-0.91,-3.47,0.76,-0.37,9.11
1.67,-0.39,-3.83,0.81,-0.06,9.37
1.38,-0.18,-3.94,0.83,0.01,9.56
1.14,-0.05,-4.03,0.60,-0.11,9.57
0.92,0.00,-4.13,0.92,-0.24,10.11
1.01,-0.18,-4.41,0.41,0.06,10.41
0.58,-0.86,-4.53,0.33,0.23,10.51
-0.13,-1.54,-4.75,0.50,0.18,10.49
-1.04,-2.07,-4.98,0.84,-0.07,10.31
-0.90,-2.10,-5.19,0.81,-0.68,9.52
-0.21,-2.12,-5.31,0.93,-0.55,9.48
0.16,-1.82,-5.34,1.09,-0.18,9.75
-0.43,-1.39,-5.42,1.13,0.12,9.87
-1.70,-1.02,-5.77,0.92,-0.40,9.71
-1.30,-1.09,-5.92,0.97,-0.84,9.49
0.09,-1.01,-6.07,0.85,-0.90,9.33
1.03,-0.91,-6.24,1.08,-0.51,9.44
0.44,-0.62,-6.41,1.31,0.28,9.90
-0.51,-0.33,-6.58,1.30,-0.01,10.01
-1.03,-0.27,-6.74,1.32,-0.37,10.08
-0.49,-0.14,-6.95,1.03,-0.60,10.09
0.53,-0.93,-7.28,0.98,-0.41,10.13
0.60,-1.34,-7.46,1.03,-0.27,9.93
0.35,-1.49,-7.59,1.51,-0.17,9.84
0.07,-1.06,-7.73,1.63,-0.16,9.73
-0.01,-0.24,-8.12,1.53,-0.37,9.64
0.33,0.29,-8.31,1.50,-0.27,10.17
0.03,0.49,-8.53,1.19,-0.07,10.25
-0.34,0.19,-8.69,1.09,-0.03,10.30
-0.39,-0.96,-9.10,1.11,-0.39,9.56
-0.25,-0.95,-9.29,1.61,-0.38,9.64
-0.10,-0.41,-9.52,1.77,-0.30,9.58
-0.19,-0.03,-9.72,1.63,-0.22,9.38
-0.27,-0.16,-10.07,1.52,-0.28,9.44
-0.28,-0.11,-10.19,1.69,-0.37,9.54
-0.29,0.07,-10.25,1.71,-0.51,9.49
-0.05,0.37,-10.50,1.77,-0.48,9.60
0.12,0.70,-10.73,1.83,-0.25,9.88
-0.06,0.85,-10.87,1.92,-0.04,10.25
-0.62,0.74,-10.89,1.64,-0.05,10.23
-0.89,0.43,-11.13,1.51,-0.24,10.22
-0.35,-0.05,-11.30,1.79,-0.39,10.23
-0.33,-0.13,-11.40,1.90,-0.26,10.23
-0.63,-0.08,-11.48,1.82,-0.18,10.09
-0.91,-0.18,-11.65,1.80,-0.20,9.87
-0.89,-0.34,-11.82,1.56,-0.47,9.67
-0.55,-0.74,-11.95,1.60,-0.46,9.52
-0.18,-1.18,-12.01,1.71,-0.47,9.52
0.01,-1.44,-12.15,1.69,-0.51,9.16
0.75,-1.14,-12.29,2.06,-0.55,9.05
1.18,-0.80,-12.41,1.89,-0.34,8.95
1.46,-0.58,-12.42,1.74,-0.06,9.10
1.11,-0.30,-12.63,2.06,0.05,9.52
0.15,0.13,-12.71,1.76,-0.36,9.59
0.67,0.06,-12.80,2.01,-0.64,9.80
1.75,0.04,-12.81,1.93,-0.52,9.90
2.03,0.04,-12.87,1.84,-0.15,9.73
0.77,0.49,-12.96,2.30,0.10,10.12
-0.34,0.76,-13.06,2.15,-0.06,10.03
-0.64,0.98,-13.12,2.22,-0.18,10.26
-0.55,0.89,-13.11,2.23,-0.31,10.37
-0.64,0.37,-13.09,2.02,-0.10,10.46
-1.01,-0.13,-13.14,2.00,-0.11,10.06
-1.37,-0.47,-13.21,2.20,-0.24,9.87
-1.33,-0.42,-13.21,2.33,-0.28,9.46
-1.41,0.38,-13.25,2.56,-0.13,9.53
-1.63,0.68,-13.25,2.30,-0.25,9.36
-1.60,0.76,-13.30,2.08,-0.45,9.49
-1.34,0.59,-13.39,2.20,-0.64,9.64
-0.00,-0.01,-13.41,1.89,-0.40,9.67
-0.04,-0.36,-13.49,2.11,-0.34,9.71
-0.20,-0.45,-13.58,2.16,-0.32,9.55
-0.05,-0.10,-13.63,2.13,-0.40,9.24
0.63,0.45,-13.76,2.13,-0.37,9.49
0.62,0.48,-13.87,2.03,-0.15,9.87
0.33,0.28,-13.92,1.98,-0.02,10.28
0.08,-0.17,-14.03,1.75,-0.10,10.33
0.18,-1.22,-14.14,1.69,-0.41,10.33
0.49,-1.44,-14.27,1.88,-0.33,10.16
0.73,-1.54,-14.26,2.06,-0.23,10.10
0.54,-1.53,-14.36,2.11,-0.14,9.90
0.04,-0.97,-14.36,2.35,-0.10,9.89
-0.06,-0.53,-14.48,2.19,-0.19,9.83
0.06,-0.30,-14.40,2.15,-0.28,9.93
0.19,-0.41,-14.43,2.06,-0.41,9.92
0.86,-0.61,-14.44,2.32,-0.16,9.94
0.73,-0.57,-14.53,2.35,-0.09,9.64
0.52,-0.48,-14.58,2.39,-0.06,9.42
0.39,-0.24,-14.54,2.50,-0.23,9.21
0.77,0.36,-14.54,2.71,-0.23,9.40
0.85,0.77,-14.55,2.62,-0.27,9.49
0.93,0.85,-14.61,2.32,-0.30,9.34
1.13,0.64,-14.60,2.27,-0.36,9.42
1.38,0.57,-14.76,2.40,-0.23,9.46
1.51,0.73,-14.75,2.58,-0.12,9.57
1.47,0.68,-14.82,2.45,0.00,9.52
1.12,0.49,-14.81,2.13,0.00,9.42
1.03,0.41,-15.03,2.35,-0.14,9.82
1.07,0.25,-15.08,2.21,-0.10,9.84
0.88,-0.03,-15.16,2.09,0.06,10.02
0.49,-0.33,-15.19,2.04,0.08,10.04
0.10,-0.34,-15.25,2.23,-0.07,10.06
-0.16,-0.24,-15.37,2.10,-0.15,9.86
-0.37,-0.31,-15.47,2.39,-0.14,10.06
-0.21,-0.22,-15.42,2.37,-0.15,10.17
-0.79,0.15,-15.49,2.44,0.01,10.46
-0.97,0.15,-15.48,2.13,-0.07,10.38
-1.42,-0.03,-15.61,2.24,-0.14,10.54
-1.38,0.02,-15.51,2.39,-0.21,10.64
-1.28,-0.10,-15.56,2.45,-0.11,10.55
-1.39,-0.13,-15.46,2.54,0.01,10.51
-1.84,-0.26,-15.53,2.38,0.04,10.24
-2.13,-0.36,-15.55,2.31,-0.06,9.97
-2.24,-0.39,-15.56,2.70,-0.28,10.05
-2.08,-0.16,-15.50,2.46,-0.30,9.88
-1.86,-0.41,-15.50,2.29,-0.30,9.69
-1.58,-0.71,-15.46,2.48,-0.24,9.80
-1.77,-0.40,-15.55,2.50,-0.09,9.62
-1.80,-0.26,-15.48,2.58,-0.12,9.48
-1.66,-0.26,-15.45,2.45,-0.23,9.21
-1.56,-0.10,-15.45,2.55,-0.32,9.18
-1.12,0.90,-15.37,2.68,-0.22,9.26
-1.00,1.23,-15.40,2.52,-0.09,9.27
-1.03,1.42,-15.48,2.42,-0.06,9.25
-1.14,1.38,-15.46,2.43,-0.10,9.28
-0.98,1.44,-15.50,2.42,-0.27,9.41
-0.95,1.15,-15.48,2.43,-0.34,9.38
-0.65,0.85,-15.44,2.56,-0.25,9.42
-0.40,0.80,-15.41,2.63,-0.19,9.46
-0.61,1.10,-15.38,2.46,-0.18,9.22
-0.35,1.25,-15.41,2.59,-0.15,9.39
-0.39,1.34,-15.40,2.41,-0.00,9.60
-0.90,1.21,-15.39,2.28,0.08,9.75
-1.57,0.33,-15.30,2.35,-0.32,9.99
-1.23,0.04,-15.24,2.27,-0.56,9.76
-0.51,-0.10,-15.17,2.30,-0.50,9.69
0.01,-0.25,-15.16,2.34,-0.19,9.69
-0.53,-0.39,-15.09,2.26,0.14,9.71
-0.93,-0.43,-15.09,2.42,-0.01,9.79
-1.09,-0.44,-15.03,2.41,-0.24,9.81
-0.84,-0.38,-14.90,2.35,-0.45,9.64
-0.22,-0.01,-14.74,2.15,-0.08,9.75
-0.45,0.07,-14.85,2.25,0.04,9.77
-0.91,0.16,-14.80,2.40,-0.02,9.85
-0.97,0.45,-14.78,2.24,-0.22,9.49
-0.39,0.66,-14.72,2.27,-0.30,9.64
-0.46,0.48,-14.82,2.19,-0.30,9.53
-0.03,0.38,-14.72,2.33,-0.27,9.62
0.38,0.49,-14.82,2.24,0.01,9.46
0.41,0.61,-14.71,2.29,0.23,9.57
-0.07,0.60,-14.76,2.35,0.19,9.74
-0.51,0.57,-14.84,2.41,0.06,9.86
-0.42,0.55,-14.69,2.30,-0.22,9.88
0.48,0.28,-14.61,2.37,-0.25,10.10
0.61,0.18,-14.57,2.03,-0.05,10.08
0.17,-0.05,-14.73,2.17,0.03,10.07
0.02,-0.20,-14.68,2.42,0.02,10.16
0.13,0.11,-14.67,2.49,-0.18,9.91
0.21,-0.08,-14.54,2.11,-0.25,9.54
0.55,-0.38,-14.63,2.11,-0.28,9.26
1.05,-0.35,-14.65,2.62,-0.10,9.52
0.51,0.19,-14.69,2.39,0.08,9.29
0.40,0.27,-14.60,2.46,0.08,9.49
0.34,0.34,-14.56,2.44,0.01,9.66
0.28,0.68,-14.64,2.47,-0.02,10.09
-0.09,0.26,-14.60,1.89,-0.13,10.24
-0.16,-0.37,-14.69,2.10,-0.13,10.52
0.06,-0.75,-14.68,2.10,-0.20,10.15
0.24,-1.15,-14.69,2.27,-0.19,9.83
0.52,-1.01,-14.74,2.22,-0.01,9.03
0.20,-0.46,-14.82,2.58,0.03,9.18
-0.01,0.31,-14.80,2.49,-0.04,9.20
0.06,0.59,-14.85,2.17,-0.15,9.25
0.99,0.19,-14.79,2.47,-0.15,9.89
1.03,0.39,-14.83,2.42,-0.07,10.00
0.75,0.59,-14.84,2.19,-0.09,9.78
0.82,0.57,-14.91,2.23,-0.16,9.69
1.45,0.65,-14.92,2.44,0.04,10.15
1.00,0.74,-14.89,2.53,0.16,10.38
0.09,0.65,-14.90,2.44,0.21,10.52
-0.70,0.36,-14.87,2.27,-0.03,10.40
0.28,0.16,-14.80,2.41,-0.41,10.15
0.80,0.19,-14.77,2.55,0.03,10.26
0.39,0.29,-14.74,2.52,0.37,10.31
-0.77,0.37,-14.73,2.57,0.35,10.46
-1.49,0.44,-14.71,2.23,-0.30,10.06
-0.82,0.11,-14.69,2.33,-0.39,10.13
-0.15,-0.18,-14.59,2.22,-0.15,10.07
-0.21,-0.37,-14.55,2.30,0.10,10.00
-1.22,-0.30,-14.59,2.26,-0.06,9.32
-0.94,-0.10,-14.60,2.38,-0.32,9.19
-0.55,0.21,-14.60,2.58,-0.31,9.34
-0.18,0.61,-14.60,2.40,-0.15,9.32
-0.33,0.63,-14.63,2.09,-0.04,9.41
-0.19,0.41,-14.69,2.07,-0.10,9.38
0.15,0.26,-14.73,2.05,-0.09,9.35
0.20,0.18,-14.79,2.22,-0.12,9.37
0.25,0.49,-14.82,2.41,0.12,9.58
0.07,0.67,-14.82,2.27,0.17,9.72
-0.52,0.52,-14.79,2.34,0.21,9.96
-0.76,0.43,-14.74,2.30,0.13,10.14
-0.89,0.44,-14.67,2.43,-0.25,10.39
-0.45,0.35,-14.63,2.24,-0.14,10.23
-0.03,0.04,-14.54,1.97,0.16,9.95
-0.15,-0.42,-14.54,2.19,0.39,9.78
-1.57,-0.45,-14.46,2.54,-0.06,9.20
-1.32,-0.21,-14.34,2.53,-0.47,8.89
-0.26,0.20,-14.25,2.74,-0.53,9.22
0.42,0.64,-14.19,2.64,-0.14,9.53
-0.65,0.90,-13.96,2.02,0.51,10.27
-1.82,0.49,-14.07,2.16,0.09,10.33
-1.64,0.16,-13.88,2.31,-0.44,10.17
-0.41,0.18,-13.68,2.33,-0.73,9.93
1.33,0.37,-13.51,2.40,0.24,9.64
0.65,0.72,-13.49,2.41,0.50,9.71
-0.49,1.11,-13.50,2.36,0.46,9.78
-1.19,1.29,-13.40,2.11,0.14,9.68
-0.19,1.01,-13.34,2.18,-0.44,9.94
0.63,0.84,-13.21,1.93,-0.32,9.81
0.92,0.60,-13.28,1.97,0.13,9.90
0.33,0.32,-13.21,2.02,0.37,9.85
-0.69,0.48,-13.18,2.44,-0.06,9.71
-0.10,0.87,-13.04,2.29,-0.23,9.53
0.26,0.90,-12.97,2.14,-0.15,9.46
0.43,0.90,-12.80,2.14,0.18,9.66
-0.74,1.00,-12.78,2.14,0.19,9.69
-0.62,0.94,-12.62,2.14,-0.20,9.41
-0.01,0.88,-12.51,2.04,-0.45,9.09
0.73,1.22,-12.46,2.43,-0.23,9.34
0.14,1.96,-12.24,1.96,0.30,9.70
-0.39,1.47,-12.16,1.62,0.18,9.67
-0.38,0.76,-12.00,1.92,-0.21,9.96
0.40,0.54,-12.04,2.01,-0.39,9.86
1.32,0.18,-11.70,1.89,-0.11,9.61
1.28,-0.02,-11.76,1.91,0.21,9.48
0.98,0.13,-11.57,2.23,0.34,9.73
0.66,0.65,-11.45,2.26,0.28,9.91
0.23,1.05,-11.19,1.86,-0.02,10.03
0.24,1.01,-11.13,1.89,-0.16,10.12
0.71,1.23,-11.03,1.92,-0.12,10.13
0.95,1.36,-10.86,1.80,0.07,10.05
-0.24,1.74,-10.85,2.13,0.30,10.11
-0.62,2.22,-10.67,2.01,0.09,9.96
-0.64,2.53,-10.62,1.88,-0.12,9.86
-0.40,2.54,-10.50,1.89,-0.05,10.05
-0.67,1.84,-10.26,1.75,0.10,10.17
-0.74,1.52,-10.07,1.86,-0.03,10.04
-0.46,1.38,-9.91,1.79,-0.27,9.60
0.14,1.51,-9.80,1.92,-0.24,9.43
0.48,2.14,-9.45,1.90,0.06,9.50
0.26,2.23,-9.33,1.90,0.07,9.55
0.57,2.27,-9.02,1.88,-0.10,9.72
0.92,2.32,-8.91,1.70,-0.23,9.78
1.48,2.43,-8.52,1.64,-0.03,9.93
1.28,2.35,-8.43,1.61,0.04,9.80
1.26,2.46,-8.21,1.80,0.02,9.84
1.59,2.95,-8.02,1.89,0.11,9.83
0.82,3.82,-7.59,1.66,0.32,9.92
0.37,3.99,-7.44,1.61,0.23,9.93
0.31,4.22,-7.20,1.67,0.05,10.10
0.42,4.41,-7.04,1.52,-0.03,10.05
0.11,4.34,-6.57,1.54,0.34,10.24
-0.57,4.25,-6.40,1.39,0.28,10.13
-1.13,4.18,-6.17,1.34,0.00,9.97
-0.94,4.12,-5.92,1.39,-0.32,9.90
0.09,4.18,-5.40,1.18,0.08,9.95
-0.23,3.87,-5.25,0.95,0.36,9.85
-0.99,3.30,-5.14,0.83,0.36,9.67
-1.28,2.91,-4.90,1.00,0.04,9.56
-0.43,2.86,-4.40,1.01,-0.34,9.32
0.40,2.85,-4.13,0.89,-0.07,9.42
0.49,2.59,-3.89,0.65,0.40,9.58
-0.28,2.28,-3.74,0.47,0.64,9.82
-1.65,1.68,-3.36,0.56,-0.11,9.87
-1.23,1.53,-3.17,0.67,-0.55,9.81
-0.14,1.62,-2.85,0.83,-0.52,9.96
0.57,1.88,-2.55,0.53,0.00,10.10
-1.16,1.89,-2.17,0.59,0.65,10.68
-2.17,1.89,-2.06,0.28,0.17,10.35
-1.97,1.85,-1.94,0.36,-0.43,10.01
-0.89,1.92,-1.64,0.70,-0.62,9.99
0.43,2.37,-1.22,0.54,0.41,9.82
-0.84,2.55,-1.03,0.58,0.61,10.02
-2.07,2.61,-1.01,0.33,0.18,9.64
-1.81,2.55,-0.80,0.30,-0.37,9.35
0.52,2.31,-0.28,0.60,-0.31,9.69
0.90,2.41,0.09,0.50,0.27,9.73
0.14,2.65,0.38,0.57,0.49,9.70
-1.00,2.99,0.41,0.39,0.37,9.35
-1.18,3.72,0.59,0.46,-0.21,9.40
-0.74,4.09,0.66,0.33,-0.02,9.67
-0.80,3.99,0.93,0.09,0.15,9.95
-1.27,3.47,1.01,-0.10,0.12,10.08
-0.92,2.12,1.36,-0.24,-0.09,9.80
-0.80,1.97,1.34,-0.03,-0.16,9.79
-0.78,2.08,1.42,0.10,-0.15,9.66
-0.48,2.23,1.48,0.07,-0.11,9.59
-0.24,2.17,1.71,-0.11,-0.07,9.61
-0.02,2.25,1.74,-0.11,-0.03,9.70
0.06,2.23,1.86,-0.27,0.04,9.73
0.01,2.07,1.84,-0.48,0.06,9.72
-0.29,1.60,1.83,-0.33,-0.01,9.68
-0.19,1.43,1.84,-0.38,0.01,9.45
-0.07,1.28,1.84,-0.24,0.09,9.41
-0.05,1.38,1.88,-0.24,0.25,9.49
-1.40,1.75,1.86,-0.31,0.45,9.95
-1.85,1.52,1.80,-0.70,0.19,10.02
-1.83,0.80,1.68,-0.88,0.00,10.08
-1.74,-0.26,1.71,-0.78,0.16,10.27
-3.76,-1.58,1.79,-0.32,0.44,10.48
-4.59,-1.27,1.79,-0.25,-0.07,10.16
-4.55,-1.03,1.74,-0.56,-0.47,9.60
-3.43,-0.95,1.67,-0.71,-0.36,9.48
-3.05,-0.60,1.49,0.11,0.37,10.35
-3.73,-0.33,1.43,-0.44,0.15,9.53
-3.86,-0.26,1.48,-0.77,-0.31,8.71
-3.16,-0.06,1.40,-0.17,-0.68,8.29
-0.57,1.24,1.53,0.63,-0.40,8.57
-0.35,2.16,1.63,0.79,-0.17,8.83
0.00,3.13,1.80,0.41,-0.02,8.92
-0.26,4.17,1.86,0.43,-0.18,9.26
1.23,5.19,1.54,-0.25,-0.02,9.75
0.95,4.63,1.48,0.09,0.20,10.91
-0.15,3.76,1.48,-0.01,0.20,11.24
-0.62,2.92,1.76,0.25,-0.08,11.09
0.63,2.71,2.13,-0.07,-0.13,10.23
0.63,2.67,2.14,-0.30,0.42,9.85
0.05,2.33,2.01,-0.12,0.76,10.05
-0.87,1.80,1.93,-0.07,0.75,9.80
-1.89,1.43,2.13,-0.00,-0.10,9.40
-1.29,0.88,2.33,-0.27,-0.44,8.90
-0.17,0.57,2.56,-0.23,-0.36,8.99
0.70,0.69,2.62,-0.37,0.16,8.96
-0.76,1.16,2.64,-0.47,0.66,9.11
-1.30,1.02,2.50,-0.75,0.10,8.53
-1.09,0.60,2.58,-0.71,-0.35,8.14
-0.21,0.17,2.67,-0.35,-0.48,8.07
1.62,1.11,3.00,-0.10,-0.03,8.57
1.50,1.99,3.07,-0.13,0.45,9.23
0.65,2.60,3.11,-0.37,0.66,9.84
-0.30,2.71,3.16,-0.84,0.50,10.27
-0.77,2.03,3.29,-0.31,-0.19,11.15
-0.46,1.79,3.39,-0.28,-0.30,10.91
0.36,1.76,3.62,-0.52,-0.16,10.24
0.59,1.52,3.78,-0.20,-0.12,10.03
-0.43,2.36,4.06,0.04,0.67,10.37
-2.22,2.84,4.13,0.56,0.13,11.10
-1.90,3.41,4.04,-0.48,-0.34,10.68
-1.02,3.03,4.40,-0.95,-0.70,10.21
0.76,2.07,4.56,-0.88,0.26,10.26
-0.48,1.19,4.69,-0.60,0.26,9.79
-0.93,0.83,4.58,0.13,0.04,9.76
-0.42,0.97,4.88,-0.22,-0.30,8.75
0.77,2.41,5.02,-0.47,0.46,9.50
-0.09,2.70,5.07,-1.08,0.73,10.01
-1.46,1.92,4.94,-1.44,0.33,10.23
-1.71,0.50,5.18,-1.24,-0.36,10.22
1.11,-0.67,5.46,-0.47,-0.48,9.45
2.11,-0.08,5.70,-0.52,0.06,9.11
1.60,0.74,5.61,-0.78,0.59,8.87
0.13,1.65,5.62,-0.66,0.79,9.19
-0.99,2.23,5.78,-1.17,-0.24,9.60
0.40,1.42,5.99,-1.20,-0.52,9.87
1.78,0.42,6.20,-1.15,-0.26,9.74
2.12,0.01,6.27,-1.09,0.20,9.47
0.56,0.35,6.37,-0.73,0.47,8.83
0.00,0.91,6.41,-0.37,0.30,9.02
-0.19,1.41,6.62,-0.54,0.02,9.04
0.19,1.79,6.74,-0.84,-0.08,9.33
0.24,1.21,7.03,-1.24,0.07,10.26
-0.05,0.93,7.03,-1.24,0.09,10.41
-0.23,0.64,7.13,-1.09,-0.06,10.34
-0.24,0.35,7.09,-1.02,-0.17,10.02
0.19,0.78,7.43,-0.66,0.33,10.36
-0.55,1.00,7.43,-0.88,0.49,10.37
-1.32,0.87,7.58,-1.27,0.25,10.32
-1.37,0.58,7.59,-1.29,-0.16,10.23
-0.50,0.46,7.81,-1.11,0.03,10.32
-0.64,0.50,7.78,-1.15,0.31,10.22
-1.31,0.08,7.88,-1.11,0.43,10.17
-1.79,-0.10,8.02,-1.40,0.23,9.86
-1.50,0.20,8.17,-0.92,-0.27,9.68
-0.81,0.46,8.29,-1.43,-0.27,9.43
-0.50,0.30,8.32,-1.15,0.05,9.72
-0.66,0.39,8.44,-0.95,0.39,10.14
-1.82,0.84,8.61,-1.31,0.03,9.61
-1.32,1.15,8.65,-1.39,-0.29,9.71
-0.66,1.24,8.65,-1.35,-0.30,9.92
-0.42,1.03,8.72,-1.43,0.04,10.31
-0.99,-0.19,8.78,-1.43,0.34,9.90
-1.00,-0.91,9.00,-1.26,0.14,9.49
-0.80,-0.89,9.18,-1.28,-0.24,9.07
-0.49,-0.40,9.18,-1.13,-0.29,8.84
0.22,0.27,9.22,-1.52,0.10,8.72
0.07,0.04,9.31,-1.43,0.16,9.00
0.11,-0.04,9.44,-1.13,0.05,9.32
0.12,-0.02,9.46,-1.11,-0.13,9.18
1.27,0.31,9.72,-1.42,-0.32,9.06
1.77,0.42,9.64,-1.50,0.03,9.35
1.69,0.41,9.71,-1.58,0.42,9.72
0.99,0.24,9.65,-1.35,0.52,10.16
-0.19,-0.11,9.89,-1.49,0.10,10.08
-0.06,-0.09,9.86,-1.44,-0.20,10.13
0.34,-0.18,9.91,-1.54,-0.19,10.12
0.64,-0.30,9.93,-1.76,0.16,9.96
-0.69,-0.63,9.99,-1.52,0.56,10.17
-1.50,-0.80,9.95,-1.62,0.08,9.69
-1.16,-0.86,10.04,-1.30,-0.42,9.72
-0.16,-0.59,10.10,-1.52,-0.56,9.44
0.91,-0.37,10.13,-1.74,0.22,9.63
0.57,-0.66,10.08,-1.65,0.47,9.63
-0.03,-0.61,10.09,-1.22,0.31,9.95
-0.46,-0.30,10.12,-1.39,-0.16,9.72
1.28,-0.12,10.25,-1.42,-0.41,9.88
1.84,-0.06,10.23,-1.48,0.05,10.09
1.65,0.20,10.23,-1.58,0.53,10.32
0.73,0.21,10.22,-1.49,0.70,10.58
-0.49,-0.14,10.26,-1.34,-0.29,10.13
0.52,0.27,10.31,-1.25,-0.52,9.91
1.52,0.62,10.32,-1.38,-0.16,9.81
1.48,0.65,10.26,-1.49,0.57,10.13
-1.41,0.28,10.22,-1.50,0.72,10.59
-2.36,-0.22,10.21,-1.46,-0.05,10.10
-1.52,-0.44,10.24,-1.33,-0.65,9.69
-0.10,-0.20,10.33,-1.17,-0.60,9.59
0.18,0.39,10.26,-1.74,0.75,9.90
-1.38,-0.28,10.20,-1.76,0.63,9.74
-1.90,-0.96,10.17,-1.72,0.10,9.34
-1.59,-1.26,10.29,-1.34,-0.40,9.03
0.63,-0.58,10.35,-1.42,-0.54,8.64
1.70,-0.21,10.35,-1.51,-0.10,8.81
1.70,0.09,10.38,-1.72,0.39,9.25
0.66,0.19,10.30,-1.66,0.39,9.64
1.10,-0.24,10.38,-1.57,-0.45,9.67
2.17,-0.05,10.34,-1.31,-0.46,9.88
2.74,0.39,10.42,-1.44,0.11,10.10
2.44,0.56,10.46,-1.77,0.61,10.28
-0.17,-0.14,10.44,-1.59,0.42,10.95
-0.51,-0.33,10.41,-1.84,-0.21,10.62
0.34,-0.63,10.52,-1.70,-0.52,10.57
1.25,-1.08,10.57,-1.73,-0.27,10.44
0.41,-1.19,10.78,-1.27,0.96,10.75
-1.32,-1.08,10.80,-1.41,0.67,10.42
-2.41,-0.99,10.80,-1.41,0.14,10.02
-2.25,-0.63,10.98,-1.34,-0.41,9.85
-0.56,0.12,11.02,-1.49,0.09,9.60
-0.87,-0.06,11.14,-1.83,0.42,9.27
-1.33,-0.37,11.06,-1.56,0.47,8.88
-1.92,-0.36,11.31,-0.83,0.35,8.96
-1.89,1.12,11.47,-1.43,-0.24,8.09
-1.22,1.53,11.69,-1.17,-0.26,8.73
-0.61,1.83,11.70,-1.74,-0.22,9.07
-0.20,1.63,11.63,-1.74,0.17,9.33
-0.64,0.45,11.98,-1.99,0.25,9.91
-0.95,0.17,11.91,-1.64,0.06,10.00
-0.62,0.12,12.22,-1.64,-0.29,10.04
-0.15,0.14,12.09,-1.85,-0.38,9.87
0.50,0.07,12.39,-1.85,0.38,10.61
-0.32,-0.08,12.23,-1.83,0.63,10.81
-1.34,-0.36,12.45,-1.72,0.50,10.81
-1.83,-0.47,12.56,-1.91,-0.20,10.38
-0.26,0.24,12.70,-1.63,-0.37,10.32
0.20,0.81,12.73,-1.80,0.01,10.23
-0.06,0.92,12.71,-1.68,0.43,10.33
-1.04,0.83,12.72,-1.93,0.44,10.47
-1.81,-0.03,12.54,-2.20,-0.56,10.07
-0.56,-0.57,12.57,-2.14,-0.69,9.80
0.65,-0.91,12.61,-1.77,-0.24,9.69
0.76,-1.18,12.64,-1.80,0.30,9.42
0.22,-1.13,12.54,-1.95,0.05,8.47
0.33,-0.93,12.56,-1.77,0.00,8.46
0.64,-0.38,12.46,-1.73,0.16,8.63
0.81,0.12,12.52,-1.57,0.28,9.03
0.14,0.53,12.60,-2.02,0.38,9.29
-0.13,0.40,12.56,-2.09,0.12,9.36
-0.11,0.21,12.47,-2.06,-0.15,9.11
0.51,0.48,12.41,-1.81,-0.19,9.19
0.99,1.35,12.43,-1.79,0.34,9.52
0.31,1.40,12.41,-1.73,0.50,9.93
-0.26,1.18,12.45,-1.86,0.35,9.93
-0.56,0.83,12.44,-2.08,-0.03,9.67
0.73,0.67,12.39,-1.65,-0.01,9.60
0.40,0.53,12.33,-1.79,0.20,9.79
-0.09,0.56,12.22,-1.92,0.42,10.13
-0.67,0.09,12.38,-1.89,0.18,10.45
-0.21,-0.59,12.27,-2.24,-0.33,10.34
0.31,-1.03,12.36,-2.08,-0.23,10.33
0.23,-1.24,12.14,-1.70,0.21,10.58
-0.42,-1.03,12.24,-1.79,0.44,10.55
-1.00,-0.83,12.14,-1.81,-0.32,10.49
-0.18,-0.59,12.26,-2.02,-0.38,10.44
0.26,-0.53,12.06,-2.17,0.05,10.25
0.07,-0.70,12.05,-2.11,0.59,10.19
-1.96,-0.69,11.79,-1.39,0.31,10.51
-1.83,-0.06,11.98,-1.90,-0.14,10.22
-0.98,-0.20,11.93,-2.03,-0.32,10.00
-0.65,-0.68,11.92,-1.87,0.09,10.05
-1.49,-0.26,11.71,-1.88,0.64,9.38
-2.34,-0.22,11.75,-1.65,0.33,9.15
-2.38,-0.05,11.59,-1.59,-0.20,8.75
-1.83,0.27,11.55,-1.64,-0.45,8.54
-0.20,0.89,11.43,-1.86,0.27,9.07
-0.92,0.44,11.38,-2.09,0.65,9.30
-1.78,-0.03,11.25,-2.01,0.54,9.41
-2.39,-0.53,11.18,-1.65,0.07,9.35
-0.80,-0.36,11.07,-1.81,-0.44,8.75
0.21,-0.28,11.02,-1.84,-0.08,9.01
0.24,-0.29,10.86,-1.71,0.38,9.59
-0.71,-0.51,10.77,-1.76,0.53,9.84
-1.33,-1.00,10.57,-1.66,-0.46,9.79
-0.23,-1.10,10.50,-1.59,-0.65,9.73
0.92,-0.70,10.37,-1.76,-0.32,9.92
0.99,-0.49,10.21,-1.67,0.21,10.37
-0.85,-1.14,9.74,-2.20,0.47,10.72
-1.26,-1.72,9.54,-1.70,0.05,10.67
-0.85,-1.79,9.51,-1.47,-0.22,10.53
-0.43,-1.58,9.36,-1.43,-0.23,10.29
-0.40,-1.31,9.04,-1.82,0.28,10.36
-0.87,-1.64,8.80,-1.97,0.46,10.15
-1.54,-1.82,8.60,-1.67,0.30,10.07
-1.71,-1.62,8.37,-1.32,-0.20,9.82
0.25,-1.06,8.06,-1.53,-0.52,8.94
0.86,-0.84,7.81,-1.42,-0.09,9.19
0.63,-0.71,7.57,-1.45,0.39,9.34
0.09,-0.79,7.37,-1.63,0.41,9.32
0.37,-1.44,6.95,-1.41,-0.47,8.86
1.93,-1.45,6.78,-1.32,-0.54,8.64
3.07,-1.19,6.63,-0.93,-0.08,9.02
3.07,-0.83,6.42,-1.07,0.57,9.33
0.55,-1.15,5.94,-1.30,0.24,9.54
1.03,-1.31,5.69,-1.11,-0.35,9.56
2.29,-1.27,5.60,-0.89,-0.35,9.77
2.82,-1.01,5.55,-0.86,0.10,10.04
0.91,-1.16,5.07,-1.01,0.69,10.10
-0.11,-1.17,4.88,-0.75,0.22,10.22
-0.10,-0.98,4.71,-0.82,-0.22,10.06
0.47,-0.86,4.54,-0.95,-0.27,10.12
0.44,-1.85,4.21,-0.83,0.38,10.33
-0.19,-1.96,4.07,-0.78,0.56,10.39
-1.04,-2.08,3.97,-0.57,0.38,10.19
-1.49,-2.20,3.81,-0.75,-0.06,9.91
-0.21,-2.71,3.58,-0.88,-0.48,9.35
0.58,-2.52,3.34,-0.57,-0.18,9.59
0.67,-2.14,3.26,-0.32,0.26,9.74
-0.01,-1.70,3.19,-0.52,0.49,9.60
-0.95,-1.02,2.86,-0.43,-0.04,9.53
-0.83,-0.53,2.69,-0.44,-0.15,9.76
-0.87,0.07,2.50,-0.38,-0.19,10.20
-0.64,0.40,2.27,-0.39,-0.15,10.51
-0.29,-0.38,1.97,-0.66,0.11,10.39
-0.67,-0.76,1.86,-0.22,0.22,10.64
-1.16,-0.62,1.75,-0.17,0.09,10.66
-1.52,-0.52,1.57,-0.30,-0.13,10.51
-0.65,-1.15,1.36,-0.41,-0.05,10.09
-0.60,-1.21,1.27,0.13,0.13,10.28
-0.98,-0.73,1.22,0.01,0.17,10.12
-1.56,-0.44,1.06,-0.15,-0.09,9.73
-0.13,-0.83,0.88,-0.28,-0.38,9.29
0.19,-0.76,0.74,0.01,-0.15,9.56
0.22,-0.51,0.69,-0.04,0.14,9.56
-0.29,-0.66,0.66,-0.12,0.07,9.41
0.11,-1.35,0.50,-0.44,-0.37,8.80
1.20,-1.26,0.39,0.07,-0.30,9.22
1.42,-0.96,0.36,0.21,0.13,9.75
0.37,-1.10,0.40,-0.29,0.39,9.65
0.10,-2.10,0.29,-0.24,-0.19,9.55
0.59,-1.90,0.27,-0.14,-0.28,9.64
0.99,-1.41,0.17,-0.20,0.00,9.68
0.75,-1.20,0.07,-0.19,0.18,9.80
-0.04,-0.71,0.02,0.07,0.17,9.91
-0.25,-0.29,0.04,0.01,-0.06,9.77
-0.04,0.07,-0.12,0.24,-0.12,9.81
0.20,0.46,-0.11,0.05,-0.04,9.68
-0.22,1.09,-0.19,0.30,0.03,9.83
0.03,1.43,-0.16,0.38,0.16,9.90
-0.27,1.47,-0.13,0.37,0.26,10.00
-0.91,1.59,-0.13,0.16,0.26,10.03
-1.41,1.10,-0.24,0.10,-0.32,9.83
-0.66,1.05,-0.20,0.17,-0.43,9.95
-0.03,0.87,-0.13,0.32,-0.28,10.14
-0.14,0.59,-0.11,0.24,0.04,10.18
-0.48,0.31,-0.12,0.11,0.02,9.89
-0.33,0.52,-0.08,0.29,-0.12,10.24
-0.27,0.68,-0.03,0.06,-0.15,10.27
-0.15,0.27,-0.05,-0.22,-0.05,9.89
0.02,-0.53,0.01,0.05,0.06,9.84
-0.08,-0.35,0.01,-0.25,0.15,9.61
-0.42,-0.40,-0.02,-0.20,0.11,9.76
-0.39,-0.77,-0.03,-0.41,0.09,9.66
-0.33,-1.44,-0.05,-0.14,-0.20,9.62
0.01,-1.25,-0.03,0.02,-0.18,9.62
-0.05,-0.86,-0.07,-0.14,-0.04,9.67
-0.01,-0.65,-0.15,-0.56,0.10,9.52
-0.35,-1.06,-0.15,0.01,0.07,9.94
-0.33,-0.67,-0.15,-0.08,-0.01,9.65
-0.42,-0.50,-0.10,-0.23,-0.19,9.41
0.08,-0.47,-0.17,-0.07,-0.21,9.54
0.09,0.03,-0.26,-0.05,0.13,9.68
-0.06,0.37,-0.26,0.28,0.21,9.91
-0.55,0.37,-0.17,0.01,0.11,9.84
-0.66,0.31,-0.25,-0.03,-0.19,9.59
0.68,0.83,-0.23,0.22,-0.36,9.39
1.00,1.07,-0.33,-0.00,-0.13,9.20
1.04,1.09,-0.36,-0.00,0.15,9.42
0.72,0.94,-0.41,0.19,0.18,9.81
0.06,0.40,-0.33,-0.01,-0.11,10.67
0.29,-0.13,-0.37,-0.10,-0.21,10.83
0.73,-0.72,-0.31,-0.14,0.06,10.77
0.51,-1.13,-0.23,-0.19,0.28,10.39
-0.72,-0.74,-0.28,0.40,0.16,10.12
-1.02,-0.23,-0.27,0.30,-0.15,9.75
-0.68,0.16,-0.28,-0.02,-0.24,9.38
-0.03,0.26,-0.14,-0.12,-0.16,9.35
-0.43,0.39,-0.18,0.20,0.25,9.78
-0.81,0.69,-0.17,-0.23,0.07,9.38
-0.84,0.44,-0.25,-0.28,-0.21,9.03
-0.13,0.22,-0.22,0.12,-0.29,9.17
0.42,0.80,-0.17,0.25,0.12,9.28
0.00,0.86,-0.13,0.07,0.23,9.40
-0.41,0.63,-0.16,-0.19,0.03,9.36
-0.25,0.35,-0.16,-0.05,-0.19,9.64
0.92,0.18,-0.14,-0.21,0.01,9.90
0.65,-0.27,-0.16,-0.13,0.23,9.98
0.04,-0.33,-0.17,0.12,0.16,10.14
-0.23,0.00,-0.17,0.19,-0.11,10.09
0.74,0.34,-0.16,-0.09,-0.25,10.03
1.14,0.34,-0.09,-0.04,0.10,10.22
0.84,0.40,-0.05,0.27,0.25,10.69
-0.04,0.54,-0.10,0.06,0.22,10.78
-0.28,-0.10,-0.11,-0.22,-0.21,10.31
0.10,-0.41,-0.11,-0.18,-0.24,10.16
0.38,-0.34,-0.10,0.12,-0.09,10.15
0.28,-0.22,-0.10,0.09,0.11,10.06
-0.16,-0.73,-0.08,-0.24,0.04,9.42
-0.32,-0.56,-0.11,0.01,-0.15,9.46
-0.10,-0.10,-0.21,0.08,-0.31,9.25
0.47,0.16,-0.17,-0.11,-0.32,9.25
1.17,-0.24,-0.16,-0.19,0.12,9.46
0.96,-0.28,-0.17,-0.03,0.24,9.57
0.59,-0.19,-0.19,-0.00,0.12,9.37
0.56,-0.10,-0.21,-0.20,-0.10,9.16
1.52,-0.14,-0.20,0.07,-0.05,9.38
1.72,0.04,-0.11,0.18,0.26,9.71
1.08,0.04,-0.04,0.07,0.38,9.77
0.32,-0.08,0.01,-0.19,0.18,9.70
0.62,0.07,-0.05,0.06,-0.37,10.10
1.35,0.09,-0.01,-0.04,-0.16,10.19
1.44,-0.22,0.03,-0.02,0.21,10.34
0.78,-0.60,0.06,-0.08,0.34,10.18
0.02,-0.20,0.25,0.53,0.07,10.20
-0.12,0.57,0.24,0.36,0.09,10.21
-0.36,0.95,0.27,0.01,0.10,10.10
-0.55,0.79,0.31,-0.21,0.07,10.31
-1.33,0.25,0.26,0.06,0.08,10.60
-1.58,0.19,0.30,-0.01,-0.02,10.43
-1.63,0.11,0.32,-0.22,-0.15,9.95
-1.25,0.05,0.30,-0.09,-0.27,9.76
-0.88,0.44,0.22,-0.18,-0.06,9.69
-0.88,0.55,0.12,-0.22,0.06,9.77
-1.05,0.13,0.08,-0.30,0.06,9.64
-0.87,-0.40,0.07,-0.40,-0.08,9.37
0.01,-0.42,0.07,0.20,-0.27,9.60
0.38,-0.00,0.04,0.06,0.07,9.78
0.08,0.11,0.02,-0.49,0.32,9.75
-0.60,-0.31,-0.09,-0.44,0.28,9.92
-0.45,-0.56,-0.00,-0.02,-0.19,9.93
-0.07,-0.35,-0.00,-0.04,-0.23,9.70
0.22,-0.24,0.01,-0.03,-0.18,9.58
0.27,-0.19,-0.00,0.01,-0.02,9.69
-0.19,0.34,-0.02,0.06,0.11,10.00
-0.28,0.13,0.01,-0.12,0.02,9.96
-0.08,-0.16,0.08,-0.08,-0.05,9.99
-0.19,-0.15,0.11,0.26,-0.06,10.21
-0.23,-0.07,0.22,-0.13,-0.08,9.79
-0.03,-0.41,0.17,-0.24,0.12,9.70
-0.16,-0.95,0.19,-0.26,0.30,9.43
-0.69,-1.15,0.22,0.02,0.22,9.43
-1.11,-0.22,0.29,0.11,-0.40,8.79
-0.45,0.02,0.28,-0.13,-0.54,8.58
0.81,0.29,0.27,-0.11,-0.29,8.80
1.08,0.51,0.23,0.13,0.12,9.33
-0.38,1.13,0.04,-0.40,0.24,9.75
-0.49,0.53,0.02,-0.66,-0.21,9.63
0.37,-0.03,-0.03,-0.16,-0.52,10.08
1.23,-0.02,0.02,0.12,-0.27,10.20
1.00,-0.11,0.05,-0.20,0.44,9.90
0.15,-0.26,-0.09,-0.19,0.29,10.00
-0.31,-0.38,-0.23,-0.03,-0.03,9.96
0.19,-0.29,-0.12,-0.05,-0.33,10.03
1.27,-0.95,-0.00,0.02,-0.10,10.02
1.38,-0.72,0.11,0.32,0.13,10.28
0.74,-0.11,0.09,0.29,0.19,10.22
0.16,0.41,0.03,0.01,0.11,9.89
0.54,0.85,0.02,0.28,-0.22,10.32
0.66,1.34,0.07,0.38,-0.00,10.59
0.35,1.44,0.22,0.22,0.25,10.48
-0.02,1.11,0.28,-0.07,0.25,10.18
-0.63,0.84,0.14,0.16,-0.19,9.93
-0.37,1.29,0.16,0.25,-0.41,9.87
0.38,1.19,0.17,-0.37,-0.39,9.31
1.26,0.52,0.11,-0.51,-0.15,9.09
0.87,-0.36,0.18,-0.00,0.25,9.23
0.38,-0.30,0.13,-0.49,-0.03,8.65
0.76,-0.36,0.04,-0.02,-0.45,8.76
1.83,-0.18,-0.03,0.18,-0.46,9.11
2.12,0.66,0.07,-0.12,0.39,9.87
1.24,0.29,0.02,-0.41,0.44,10.14
0.67,-0.36,-0.04,-0.49,0.13,10.11
0.44,-0.67,-0.04,-0.09,-0.21,10.37
1.06,0.08,-0.06,-0.16,-0.12,10.14
0.79,0.19,-0.07,-0.16,0.12,10.34
0.03,0.28,-0.18,0.01,0.41,10.60
-0.78,0.39,-0.15,-0.10,0.35,10.73
-1.56,0.01,-0.28,-0.19,-0.17,10.53
-1.46,-0.25,-0.27,-0.06,-0.22,10.56
-1.56,-0.38,-0.36,-0.12,-0.09,10.34
-1.66,-0.46,-0.38,-0.12,0.15,10.29
-3.19,-0.97,-0.46,-0.15,0.11,10.05
-3.36,-1.12,-0.42,-0.19,-0.33,9.71
-3.03,-1.27,-0.47,-0.03,-0.70,9.39
-2.04,-1.12,-0.48,0.14,-0.65,9.17
-1.59,-0.92,-0.69,-0.41,-0.12,8.63
-1.57,-0.92,-0.71,0.21,-0.04,8.94
-1.68,-0.70,-0.68,0.30,-0.31,9.10
-1.45,-0.12,-0.76,-0.09,-0.47,8.94
-0.28,0.05,-0.77,-0.10,-0.27,10.04
-0.53,-0.40,-0.97,-0.62,0.04,10.09
-0.83,-0.88,-0.91,-0.41,0.03,10.39
-1.23,-1.43,-1.01,-0.03,-0.20,10.53
-0.91,-1.55,-0.82,0.28,-0.38,10.11
-0.85,-1.17,-0.83,0.12,-0.33,9.97
-1.04,-0.86,-0.84,0.11,-0.18,10.00
-1.46,-0.66,-0.86,0.15,-0.12,10.20
-1.72,-0.86,-0.82,0.14,-0.38,9.76
-1.64,-1.03,-0.75,0.62,-0.48,9.93
-1.56,-0.54,-0.69,0.56,-0.42,9.64
-1.54,0.10,-0.61,0.41,-0.40,9.41
-1.26,0.75,-0.62,0.32,-0.24,9.45
-1.58,0.87,-0.67,0.20,-0.21,9.40
-1.90,1.04,-0.62,0.40,-0.41,9.48
-1.79,0.87,-0.56,0.39,-0.62,9.42
-0.79,0.21,-0.57,-0.15,-0.84,9.10
-0.48,-0.19,-0.61,0.06,-0.76,9.07
-0.33,-0.47,-0.61,0.01,-0.61,9.14
-0.05,-0.74,-0.62,-0.14,-0.54,8.91
0.78,-1.47,-0.71,0.06,-0.72,8.59
1.80,-0.99,-0.68,0.34,-0.51,8.81
1.88,-0.12,-0.64,0.30,-0.08,9.39
1.28,0.44,-0.75,-0.10,0.22,9.61
0.49,-0.64,-0.77,-0.24,-0.44,10.43
1.10,-0.89,-0.77,-0.24,-0.64,10.26
1.80,-1.26,-0.76,-0.30,-0.50,10.09
1.79,-1.43,-0.86,-0.26,-0.10,10.18
-0.11,-1.44,-0.90,0.21,0.03,10.43
-1.19,-1.02,-0.93,0.34,-0.59,10.57
-0.98,-0.75,-0.96,-0.06,-1.11,10.31
0.23,-0.93,-0.86,-0.11,-1.13,10.41
0.64,-1.03,-0.99,0.05,0.00,10.57
-0.80,-1.05,-0.96,0.22,0.06,10.38
-1.60,-0.85,-1.05,0.13,-0.28,9.97
-1.37,-0.91,-0.93,0.28,-0.73,9.51
0.55,-0.52,-0.98,0.14,-0.54,9.16
0.49,-0.37,-0.89,0.29,-0.12,9.12
-0.16,-0.37,-0.87,0.25,-0.06,9.25
-0.84,-0.41,-0.93,0.19,-0.52,9.01
0.89,-0.10,-0.74,0.36,-1.26,9.00
2.50,0.09,-0.72,0.21,-0.94,8.96
3.06,0.27,-0.70,0.07,-0.35,9.46
2.14,0.32,-0.83,0.08,0.08,9.86
-0.29,-0.07,-0.90,0.08,-0.62,10.34
0.31,-0.20,-0.87,0.24,-1.04,10.30
1.30,-0.20,-0.73,0.31,-0.75,10.39
1.71,0.06,-0.70,0.13,-0.03,10.34
-0.85,0.13,-0.69,0.39,0.21,10.69
-1.73,0.66,-0.79,0.27,-0.31,10.60
-1.75,0.65,-0.82,0.02,-0.90,10.14
-0.90,0.46,-0.74,0.08,-1.22,10.10
0.38,0.32,-0.74,0.34,-0.37,10.13
-0.35,0.54,-0.75,0.29,-0.11,10.27
-1.83,0.20,-0.83,-0.04,-0.47,9.89
-2.20,-0.12,-0.95,-0.08,-1.13,9.84
0.11,-0.53,-0.91,0.28,-1.33,9.82
1.34,-0.50,-0.79,0.05,-0.71,9.68
1.25,-0.79,-0.74,0.03,-0.14,9.42
0.44,-1.00,-0.86,0.15,0.03,9.36
-0.02,-0.59,-0.94,0.15,-0.77,8.85
0.92,-0.28,-0.96,0.20,-0.76,9.14
1.40,-0.16,-0.87,-0.05,-0.51,9.35
0.90,-0.32,-0.90,-0.22,-0.27,9.72
-0.42,-0.05,-0.90,0.25,-0.78,10.76
-0.63,0.55,-0.96,0.07,-0.95,11.12
-0.40,0.75,-0.92,-0.17,-0.90,11.41
-0.60,0.22,-0.97,-0.42,-0.66,11.51
-1.50,-1.10,-1.01,0.20,-0.47,10.47
-1.78,-0.92,-0.94,0.49,-0.86,9.68
-1.26,-0.45,-0.94,0.24,-1.05,8.64
-0.25,-0.14,-0.93,0.32,-0.89,8.25
0.21,1.03,-0.94,0.67,-0.19,8.65
-0.48,1.63,-0.89,0.23,-0.26,8.80
-1.15,1.56,-0.95,0.09,-0.84,9.00
-0.48,1.10,-0.96,0.25,-1.37,9.40
2.26,0.06,-0.87,-0.20,-1.18,9.75
2.34,-0.52,-0.92,0.21,-0.51,10.25
1.31,-0.79,-0.91,0.20,-0.18,10.16
0.03,-0.92,-0.93,0.09,-0.44,9.72
0.94,-0.85,-0.74,0.35,-1.08,9.79
1.43,-0.54,-0.71,0.35,-0.72,10.06
1.07,-0.20,-0.56,0.19,-0.22,10.41
-0.17,-0.33,-0.61,-0.18,-0.09,10.38
-1.26,-0.61,-0.62,0.28,-0.67,10.53
-1.46,-0.04,-0.63,0.32,-0.85,10.28
-1.25,0.31,-0.54,-0.09,-0.93,9.67
-1.01,0.16,-0.59,-0.28,-1.06,9.47
-0.97,0.45,-0.74,0.36,-1.15,9.77
-0.77,0.67,-0.77,-0.13,-1.19,9.43
-0.22,0.29,-0.80,-0.25,-1.18,9.18
0.32,-0.27,-0.81,0.11,-1.11,9.35
0.81,0.28,-0.68,0.28,-0.78,9.27
0.47,0.36,-0.72,0.19,-0.76,9.37
0.13,0.45,-0.83,0.25,-0.82,9.65
0.19,0.67,-0.78,0.29,-0.94,9.93
0.52,0.67,-0.65,0.11,-1.05,10.46
0.33,0.58,-0.64,0.27,-1.07,10.62
0.00,0.75,-0.64,0.32,-1.07,10.63
-0.23,0.92,-0.59,0.22,-1.13,10.52
-0.10,0.53,-0.71,-0.01,-1.17,10.41
-0.07,0.24,-0.62,0.15,-0.96,10.46
-0.48,-0.01,-0.62,-0.01,-0.78,10.32
-1.18,-0.55,-0.60,-0.04,-0.81,9.99
-1.08,-1.43,-0.51,-0.05,-1.26,9.31
-0.72,-1.35,-0.48,0.01,-1.19,9.25
-0.69,-1.11,-0.60,0.02,-0.99,9.28
-1.11,-1.04,-0.61,-0.07,-0.97,9.20
-1.32,-0.91,-0.63,-0.09,-1.51,9.16
-0.59,-0.66,-0.63,0.04,-1.56,9.05
0.02,-0.37,-0.61,0.20,-1.39,9.04
0.43,0.31,-0.58,0.19,-1.17,9.14
-0.49,1.56,-0.77,0.13,-1.22,9.42
-0.24,1.79,-0.77,-0.06,-1.38,9.36
0.35,1.78,-0.76,0.17,-1.39,9.97
0.52,1.87,-0.80,0.36,-1.07,10.55
-0.76,0.81,-0.72,-0.29,-0.86,10.60
-1.20,-0.14,-0.77,-0.22,-1.28,10.44
-0.88,-0.59,-0.84,-0.04,-1.55,10.30
-0.57,-0.70,-0.84,0.27,-1.48,10.34
-0.44,-1.44,-0.79,-0.31,-1.30,9.66
-0.32,-1.92,-0.82,0.16,-1.37,9.94
-0.10,-1.99,-0.76,0.14,-1.37,9.89
-0.10,-1.95,-0.66,-0.02,-1.40,9.64
0.11,-1.41,-0.64,0.22,-1.49,9.63
0.49,-0.76,-0.62,0.08,-1.32,9.50
0.68,-0.29,-0.54,0.08,-1.01,9.72
0.01,-0.27,-0.63,0.05,-0.86,9.91
-1.04,-0.23,-0.54,0.08,-1.45,9.61
-0.77,-0.15,-0.57,0.06,-1.83,9.48
0.20,-0.24,-0.53,0.06,-1.65,9.18
0.88,-0.36,-0.47,0.10,-1.29,9.29
-0.24,-0.15,-0.50,0.08,-1.03,9.09
-0.62,-0.14,-0.52,0.23,-1.47,9.17
-0.24,0.11,-0.55,0.37,-1.76,9.17
0.56,0.65,-0.47,0.49,-1.65,9.53
0.48,1.36,-0.49,-0.03,-1.00,10.02
-0.10,0.95,-0.49,-0.07,-0.94,9.98
-0.46,0.88,-0.49,0.39,-1.18,10.01
-0.60,1.12,-0.48,0.29,-1.51,9.46
0.35,1.56,-0.58,0.36,-1.58,9.52
0.34,1.41,-0.53,0.29,-1.31,9.77
0.13,1.35,-0.48,0.08,-1.18,9.96
-0.45,0.88,-0.42,0.11,-1.33,10.01
-0.19,0.56,-0.48,0.09,-1.82,9.98
0.43,0.52,-0.46,0.04,-1.72,10.04
0.77,0.43,-0.51,-0.15,-1.30,10.31
0.17,0.10,-0.50,-0.03,-1.02,10.68
-1.70,-0.57,-0.51,-0.17,-1.58,10.78
-1.22,-0.96,-0.47,-0.23,-2.02,10.42
-0.35,-1.21,-0.44,-0.04,-1.92,10.36
0.01,-1.00,-0.45,0.01,-1.34,10.37
-2.07,-0.87,-0.43,-0.18,-0.84,10.37
-3.25,-1.17,-0.46,-0.17,-1.53,10.02
-3.30,-1.15,-0.42,0.01,-2.08,9.65
-2.03,-0.74,-0.33,-0.03,-2.19,9.26
-0.31,-0.13,-0.32,0.06,-1.49,9.00
-0.73,0.41,-0.34,0.13,-1.07,9.10
-1.96,0.87,-0.36,0.26,-1.16,9.19
-2.59,1.15,-0.37,0.14,-1.69,9.11
-1.14,0.87,-0.40,-0.22,-2.25,9.11
-0.06,0.49,-0.40,-0.07,-2.06,9.52
0.31,0.08,-0.38,-0.10,-1.54,9.50
-0.23,-0.34,-0.35,0.05,-1.23,9.49
-1.23,-0.45,-0.26,0.29,-2.03,9.36
-0.42,-0.24,-0.15,0.12,-2.36,9.35
0.87,0.15,-0.08,0.25,-2.12,9.59
1.05,0.48,-0.08,0.38,-1.54,9.92
-1.00,0.71,-0.08,-0.11,-1.43,9.74
-1.31,0.39,-0.12,0.16,-1.99,9.81
-0.73,0.46,-0.08,0.29,-2.20,9.76
-0.24,0.80,-0.05,0.29,-2.03,9.90
-0.72,1.15,-0.04,-0.10,-1.72,10.33
-1.47,0.71,-0.11,-0.18,-1.88,10.44
-1.47,0.30,-0.09,-0.16,-2.12,10.34
-1.06,-0.05,-0.08,-0.02,-2.14,10.07
-1.25,-0.07,-0.11,0.14,-1.88,9.79
-1.73,-0.06,-0.09,0.04,-2.04,9.66
-1.64,-0.18,-0.03,-0.20,-2.32,9.63
-0.87,-0.35,-0.08,-0.34,-2.39,9.64
-0.48,-0.77,-0.18,-0.23,-1.77,9.44
-1.00,-0.97,-0.18,-0.22,-1.79,9.07
-1.19,-0.99,-0.15,-0.01,-2.12,8.93
-0.82,-0.64,-0.13,0.11,-2.41,8.93
0.63,0.11,-0.06,-0.10,-2.48,9.05
1.08,0.32,-0.15,-0.11,-2.24,9.32
0.78,0.48,-0.19,-0.07,-2.04,9.69
0.41,0.52,-0.17,-0.14,-2.05,9.75
0.60,0.00,-0.14,0.16,-2.38,9.80
0.78,0.21,-0.07,0.24,-2.27,9.74
0.69,0.41,-0.02,-0.10,-2.23,9.77
0.56,0.28,-0.07,-0.22,-2.30,9.92
0.31,-0.29,-0.01,0.13,-2.36,10.40
0.14,-0.31,0.04,-0.05,-2.38,10.15
0.25,-0.47,0.08,-0.09,-2.39,10.10
0.35,-0.64,0.06,0.08,-2.35,10.21
-0.16,-0.41,0.13,-0.07,-2.24,10.00
-0.21,-0.45,0.07,-0.00,-2.36,9.81
-0.19,-0.47,0.08,0.21,-2.47,9.78
-0.21,-0.23,0.12,0.10,-2.52,9.74
0.05,0.01,0.11,-0.13,-2.56,9.68
0.34,-0.35,0.12,0.01,-2.46,9.48
0.45,-0.39,0.18,0.18,-2.37,9.32
0.50,0.09,0.23,0.25,-2.39,9.16
0.48,0.95,0.18,0.02,-2.55,9.32
0.75,1.04,0.19,-0.24,-2.69,9.42
0.91,0.80,0.16,0.18,-2.62,9.67
1.14,1.03,0.23,0.25,-2.37,9.57
0.64,1.70,0.16,0.22,-2.24,9.33
0.64,2.01,0.17,-0.09,-2.40,9.55
0.61,1.83,0.03,-0.19,-2.49,9.67
0.73,1.41,0.01,-0.22,-2.43,9.86
0.40,0.42,-0.08,-0.18,-2.35,9.81
0.23,0.03,-0.12,-0.27,-2.37,9.84
0.24,-0.32,-0.19,-0.18,-2.48,9.88
0.12,-0.66,-0.19,-0.05,-2.57,10.14
0.18,-0.86,-0.17,-0.31,-2.47,10.30
-0.16,-1.11,-0.21,-0.10,-2.45,10.62
-0.41,-1.20,-0.20,-0.16,-2.50,10.51
-0.52,-1.25,-0.15,-0.24,-2.51,10.18
-0.66,-0.88,-0.09,0.16,-2.48,10.13
-0.91,-0.47,-0.01,0.10,-2.50,10.11
-0.90,0.02,0.04,-0.05,-2.59,10.07
-0.79,0.13,0.03,-0.21,-2.59,9.74
-0.48,0.39,0.05,0.26,-2.55,9.70
-0.54,0.79,0.11,0.30,-2.53,9.66
-0.51,0.99,0.14,0.06,-2.57,9.71
-0.56,0.71,0.15,-0.12,-2.62,9.83
-0.50,0.41,0.19,0.19,-2.54,10.14
-1.00,0.39,0.18,0.14,-2.56,9.96
-1.16,0.31,0.13,-0.06,-2.66,9.66
-0.71,0.07,0.14,0.00,-2.71,9.54
-0.37,-0.15,0.13,0.03,-2.44,9.44
-0.73,-0.37,0.17,-0.01,-2.52,9.41
-0.80,-0.58,0.15,-0.16,-2.67,9.50
-0.61,-0.94,0.20,-0.18,-2.71,9.35
0.21,-1.02,0.20,-0.03,-2.62,9.44
0.04,-0.82,0.20,-0.18,-2.55,9.53
-0.37,-0.80,0.09,-0.35,-2.61,9.69
-0.45,-0.97,0.11,-0.31,-2.74,9.71
0.06,-0.65,0.16,0.11,-2.66,9.50
0.05,-0.00,0.19,0.22,-2.54,9.39
-0.18,0.64,0.18,0.22,-2.56,9.57
-0.35,1.16,0.15,-0.09,-2.71,9.74
0.10,1.24,0.11,-0.09,-2.76,9.88
0.32,1.17,0.09,0.08,-2.53,9.81
-0.01,1.22,0.09,0.19,-2.41,9.68
-0.40,1.22,0.07,0.17,-2.53,9.69
-0.05,0.59,0.04,-0.34,-2.90,9.85
0.24,-0.03,-0.01,-0.24,-2.77,10.17
-0.05,-0.63,-0.05,-0.11,-2.53,10.26
-0.56,-1.09,-0.06,-0.06,-2.42,10.08
-0.98,-1.47,-0.05,-0.05,-2.82,9.99
-0.89,-1.50,-0.03,-0.04,-2.91,10.06
-0.74,-1.53,0.02,-0.19,-2.82,9.92
-0.56,-1.47,0.07,-0.20,-2.65,9.65
-0.86,-0.97,0.08,0.24,-2.56,9.46
-0.76,-0.32,0.16,0.17,-2.69,9.38
-0.74,0.08,0.18,0.00,-2.84,9.45
-0.60,0.23,0.19,-0.06,-2.92,9.50
0.09,0.70,0.23,0.16,-2.94,9.63
0.22,0.92,0.29,0.23,-2.80,9.64
-0.07,1.06,0.30,0.11,-2.76,9.85
-0.30,1.04,0.26,-0.09,-2.92,9.93
0.46,0.18,0.17,-0.22,-2.90,9.65
0.58,-0.18,0.17,0.11,-2.58,9.55
0.18,-0.30,0.17,0.17,-2.42,9.47
-0.36,-0.42,0.19,0.15,-2.64,9.46
0.09,-0.70,0.20,-0.32,-2.98,9.41
0.44,-0.95,0.16,-0.11,-2.94,9.55
0.60,-0.89,0.15,0.15,-2.69,9.66
0.31,-0.67,0.20,0.10,-2.57,9.57
-0.24,-0.11,0.16,-0.07,-3.11,9.88
0.22,-0.01,0.17,-0.25,-3.15,9.98
0.61,0.07,0.17,-0.24,-2.83,10.02
0.31,0.15,0.13,-0.13,-2.46,9.83
-1.12,0.29,0.03,0.03,-2.71,9.56
-0.86,0.52,-0.03,-0.11,-3.05,9.43
0.05,0.43,-0.00,-0.27,-3.03,9.32
0.86,0.16,-0.00,-0.13,-2.72,9.27
0.27,0.04,0.03,0.05,-2.23,9.56
-0.27,0.12,-0.05,0.09,-2.55,9.95
-0.47,-0.10,-0.06,-0.21,-2.97,9.99
0.20,-0.35,-0.04,-0.27,-3.12,9.88
0.68,-0.24,0.06,0.36,-2.32,10.07
-0.47,0.26,0.02,0.29,-2.23,10.17
-1.34,0.40,0.04,-0.04,-2.72,10.08
-0.88,0.22,0.08,-0.22,-3.23,10.02
0.74,0.18,0.10,0.22,-2.49,9.88
0.19,0.56,0.13,0.39,-1.94,9.93
-0.90,0.76,0.16,0.18,-2.00,9.79
-1.52,0.51,0.17,-0.10,-2.57,9.69
-0.08,0.06,0.26,-0.04,-2.99,9.52
0.38,-0.01,0.25,0.01,-2.58,9.39
0.03,0.03,0.22,0.08,-2.21,9.41
-0.65,-0.09,0.25,0.06,-2.28,9.37
-0.36,-0.46,0.32,-0.03,-3.07,9.32
0.52,-0.49,0.35,-0.04,-2.98,9.25
1.11,-0.32,0.31,-0.12,-2.57,9.29
0.94,-0.24,0.24,-0.15,-2.19,9.41
-0.13,-0.33,0.20,0.01,-2.40,9.95
-0.22,-0.39,0.24,-0.00,-2.68,9.86
0.34,-0.26,0.26,-0.07,-2.76,9.75
0.78,0.03,0.24,-0.02,-2.65,9.81
0.30,0.48,0.14,-0.15,-2.19,10.41
-0.49,0.25,0.16,-0.24,-2.35,10.45
-0.82,-0.13,0.12,-0.08,-2.56,10.30
-0.67,-0.18,0.17,-0.01,-2.70,9.99
-0.22,0.27,0.15,0.02,-2.44,9.93
-0.48,0.20,0.10,-0.16,-2.34,10.13
-1.06,-0.17,0.07,-0.15,-2.32,10.07
-1.16,-0.43,0.10,-0.07,-2.43,9.78
-0.49,-0.28,0.22,0.19,-2.50,9.21
-0.09,0.07,0.22,0.09,-2.34,9.17
-0.20,0.22,0.25,0.03,-2.24,9.36
-0.43,0.18,0.22,-0.17,-2.36,9.55
0.16,-0.14,0.16,-0.03,-2.63,9.43
0.66,-0.08,0.18,0.07,-2.41,9.37
0.49,0.06,0.16,0.01,-2.21,9.45
0.14,0.11,0.14,-0.05,-2.27,9.69
0.16,-0.32,0.11,-0.21,-2.62,9.84
0.65,-0.48,0.13,-0.12,-2.46,9.68
0.74,-0.44,0.08,0.06,-2.09,9.59
0.38,-0.25,0.05,0.23,-1.82,9.58
-0.58,0.04,0.10,-0.01,-2.30,9.92
-0.32,-0.15,0.11,-0.14,-2.55,9.91
0.18,-0.28,0.12,-0.13,-2.48,9.78
0.37,-0.13,0.10,0.20,-2.20,9.83
-0.53,0.22,0.07,-0.11,-2.11,10.04
-0.83,-0.04,0.03,-0.12,-2.38,10.24
-0.73,-0.37,0.04,-0.18,-2.56,10.07
-0.31,-0.53,0.08,-0.05,-2.51,9.87
-0.04,-0.39,0.12,0.04,-2.04,9.58
-0.39,-0.30,0.09,0.04,-2.01,9.64
-0.50,-0.35,0.10,-0.11,-2.21,9.66
-0.26,-0.49,0.10,-0.18,-2.45,9.58
0.71,-0.48,0.17,0.17,-2.21,9.35
0.76,-0.07,0.20,0.18,-2.01,9.35
0.41,0.20,0.24,0.14,-1.97,9.48
0.14,0.29,0.24,0.03,-2.12,9.63
0.42,0.52,0.26,0.07,-2.36,9.82
0.55,0.60,0.28,0.09,-2.25,9.78
0.57,0.70,0.29,0.15,-2.06,9.84
0.37,0.83,0.29,0.13,-1.92,9.89
-0.34,0.72,0.24,-0.04,-2.11,9.96
-0.32,0.48,0.23,-0.04,-2.30,9.83
-0.05,0.29,0.23,0.15,-2.34,9.70
0.32,0.44,0.26,0.18,-2.20,9.69
0.14,0.42,0.23,-0.10,-1.93,9.75
-0.00,0.14,0.19,-0.19,-2.06,9.68
-0.10,-0.20,0.18,-0.03,-2.16,9.66
0.09,-0.20,0.21,0.04,-2.19,9.61
0.42,-0.06,0.16,-0.06,-2.05,9.49
0.46,0.01,0.14,-0.18,-2.00,9.69
0.22,-0.07,0.05,-0.22,-2.02,9.88
0.01,-0.24,0.03,-0.23,-2.07,9.94
0.10,-0.56,0.04,0.01,-2.05,9.57
0.16,-0.36,0.09,0.08,-2.01,9.52
0.19,0.01,0.14,-0.03,-2.02,9.61
0.03,0.10,0.11,-0.13,-1.99,9.82
