angleSpeedx_y_z;lineAccx_y_z
-0.03,-0.01,0.05,0.00,-0.09,9.79
-0.04,-0.01,0.05,0.00,-0.09,9.80
-0.03,0.01,0.06,0.01,-0.09,9.80
-0.02,0.02,0.06,0.00,-0.10,9.79
-0.00,0.00,0.04,-0.00,-0.09,9.80
-0.02,-0.00,0.03,-0.00,-0.09,9.80
-0.00,0.01,0.02,-0.01,-0.10,9.80
0.01,0.01,0.03,-0.01,-0.10,9.80
-0.02,0.03,0.05,0.00,-0.10,9.80
-0.02,0.02,0.05,0.00,-0.10,9.80
0.00,0.04,0.05,0.00,-0.10,9.81
0.03,0.02,0.05,-0.00,-0.11,9.80
-0.01,-0.00,0.06,0.00,-0.10,9.81
-0.02,0.01,0.07,-0.00,-0.10,9.81
-0.02,0.02,0.09,-0.00,-0.10,9.80
0.00,0.01,0.09,-0.00,-0.09,9.80
0.02,-0.00,0.08,-0.03,-0.08,9.80
-0.00,0.00,0.08,-0.02,-0.08,9.81
0.00,0.00,0.07,-0.03,-0.07,9.80
-0.00,-0.01,0.07,-0.03,-0.08,9.79
0.03,-0.01,0.04,-0.04,-0.07,9.80
0.01,-0.01,0.05,-0.04,-0.06,9.80
0.01,-0.01,0.04,-0.03,-0.06,9.81
0.01,-0.03,0.01,-0.02,-0.05,9.80
-0.03,0.01,0.02,-0.02,-0.07,9.80
0.01,-0.02,0.01,-0.02,-0.08,9.80
0.04,-0.04,0.00,-0.02,-0.05,9.81
0.01,-0.02,0.01,-0.01,-0.04,9.82
-0.05,-0.03,-0.00,-0.00,-0.06,9.81
-0.04,-0.00,-0.01,-0.00,-0.09,9.80
0.01,-0.01,0.01,0.00,-0.09,9.80
0.01,-0.05,0.03,0.00,-0.06,9.82
-0.05,-0.03,0.05,0.01,-0.05,9.82
-0.08,-0.01,0.05,0.01,-0.07,9.81
-0.07,-0.02,0.05,0.01,-0.10,9.80
-0.02,-0.02,0.08,0.01,-0.11,9.79
0.02,-0.02,0.09,-0.01,-0.07,9.81
-0.05,-0.02,0.07,-0.01,-0.07,9.81
-0.10,-0.03,0.06,-0.00,-0.08,9.81
-0.09,-0.02,0.07,-0.00,-0.11,9.79
0.02,-0.01,0.07,-0.00,-0.10,9.78
0.03,0.01,0.05,-0.01,-0.08,9.79
-0.02,-0.02,0.05,-0.01,-0.08,9.81
-0.06,-0.05,0.04,-0.01,-0.09,9.80
-0.01,-0.01,0.02,-0.00,-0.11,9.78
0.05,0.01,0.02,-0.01,-0.10,9.79
0.03,0.01,0.03,-0.02,-0.09,9.80
0.01,0.01,0.04,-0.02,-0.08,9.81
-0.03,-0.03,0.04,-0.00,-0.10,9.80
-0.00,-0.01,0.03,0.00,-0.10,9.79
0.03,0.03,0.01,0.00,-0.09,9.79
0.03,0.02,0.00,-0.01,-0.07,9.81
-0.03,-0.00,0.02,-0.01,-0.07,9.82
-0.02,-0.01,0.03,-0.00,-0.08,9.81
0.00,0.02,0.05,0.00,-0.10,9.79
0.02,0.02,0.06,-0.00,-0.09,9.80
0.03,0.01,0.06,-0.01,-0.07,9.82
-0.01,0.01,0.05,-0.01,-0.06,9.83
-0.02,-0.00,0.09,-0.01,-0.07,9.81
-0.03,0.01,0.11,-0.01,-0.08,9.81
-0.00,-0.00,0.06,-0.02,-0.07,9.81
-0.00,-0.02,0.08,-0.03,-0.05,9.82
-0.01,-0.02,0.09,-0.03,-0.05,9.83
-0.04,-0.03,0.07,-0.04,-0.07,9.81
-0.04,-0.02,0.06,-0.02,-0.08,9.80
-0.06,-0.01,0.05,-0.02,-0.09,9.81
-0.03,-0.03,0.04,-0.04,-0.09,9.82
-0.03,-0.05,0.02,-0.05,-0.10,9.81
-0.06,-0.04,0.02,-0.01,-0.08,9.79
-0.11,-0.05,0.02,0.01,-0.08,9.79
-0.09,-0.02,0.02,0.00,-0.11,9.78
-0.03,-0.01,0.03,-0.01,-0.13,9.77
0.03,-0.02,0.04,0.01,-0.10,9.79
0.03,-0.00,0.03,0.03,-0.08,9.79
-0.00,0.01,0.03,0.04,-0.09,9.79
-0.02,0.02,0.03,0.02,-0.10,9.77
0.12,0.02,0.03,0.02,-0.12,9.80
0.17,0.02,0.05,0.01,-0.08,9.83
0.14,0.00,0.06,0.01,-0.04,9.83
0.12,-0.02,0.08,0.01,0.01,9.81
-0.09,-0.01,0.07,0.02,-0.08,9.82
0.01,-0.00,0.09,0.01,-0.14,9.84
0.18,-0.01,0.10,-0.03,-0.13,9.79
0.38,0.00,0.10,-0.04,0.01,9.76
0.14,-0.01,0.04,-0.00,0.29,9.79
-0.26,0.02,0.04,0.01,0.19,9.86
-0.55,0.04,0.02,0.01,-0.06,9.88
-0.41,0.04,0.02,-0.05,-0.33,9.85
0.52,-0.00,0.02,-0.05,-0.12,9.86
0.52,-0.06,0.04,-0.07,0.22,9.85
0.01,-0.07,0.01,-0.02,0.40,9.86
-0.64,-0.07,0.02,0.02,0.22,9.82
-0.35,0.04,-0.01,-0.00,-0.42,9.69
0.36,0.11,0.02,-0.05,-0.34,9.71
0.63,0.09,0.03,-0.05,-0.01,9.83
0.21,0.06,0.01,-0.03,0.23,9.97
-0.56,-0.17,-0.02,-0.02,-0.14,9.78
-0.07,-0.16,0.01,0.02,-0.32,9.61
0.60,-0.04,0.04,0.04,-0.18,9.57
0.78,0.09,0.04,0.07,0.16,9.72
-0.38,0.02,0.01,-0.06,0.23,9.90
-0.55,-0.08,0.03,-0.01,-0.10,9.87
-0.15,-0.11,0.06,0.00,-0.34,9.79
0.42,-0.06,0.08,0.03,-0.27,9.78
0.18,0.06,0.09,-0.02,0.20,9.94
-0.30,-0.04,0.08,-0.05,0.15,9.96
-0.50,-0.14,0.06,-0.03,-0.04,9.88
-0.31,-0.13,0.07,0.02,-0.19,9.76
0.08,0.09,0.10,0.05,-0.08,9.77
-0.05,0.11,0.07,-0.03,0.01,9.87
-0.26,0.02,0.05,-0.07,0.00,9.92
-0.33,-0.10,0.05,-0.05,-0.07,9.85
-0.11,-0.03,0.08,0.07,-0.19,9.66
0.01,0.09,0.05,0.04,-0.18,9.69
0.06,0.12,0.03,-0.04,-0.13,9.78
0.04,0.02,0.04,-0.08,-0.08,9.84
-0.02,-0.12,0.03,0.02,-0.06,9.77
-0.05,-0.05,0.03,0.06,-0.10,9.72
-0.05,0.05,0.02,0.03,-0.16,9.73
0.05,0.09,0.03,-0.03,-0.21,9.81
0.22,-0.04,0.00,-0.04,-0.09,9.88
0.14,-0.09,-0.01,0.00,-0.03,9.84
-0.04,-0.03,0.00,0.04,-0.03,9.81
-0.13,0.06,0.01,0.02,-0.11,9.81
0.01,0.02,0.04,-0.04,-0.20,9.86
0.11,-0.01,0.04,-0.01,-0.12,9.85
0.05,-0.02,0.07,0.03,-0.05,9.82
-0.08,0.03,0.08,0.03,-0.04,9.78
0.10,0.02,0.10,-0.04,-0.12,9.67
0.39,-0.03,0.08,0.00,0.01,9.67
0.48,-0.07,0.10,0.04,0.19,9.69
0.22,-0.03,0.09,0.05,0.28,9.72
-0.35,0.06,0.10,-0.02,-0.11,9.73
0.03,0.08,0.10,-0.04,-0.27,9.77
0.61,0.05,0.15,-0.05,-0.17,9.84
0.85,0.00,0.15,-0.05,0.17,9.92
-0.35,-0.09,0.07,-0.03,0.31,9.96
-0.63,-0.12,0.06,-0.06,-0.04,9.85
-0.13,-0.10,0.07,-0.05,-0.28,9.76
0.63,-0.04,0.07,-0.01,-0.12,9.74
0.37,0.03,0.09,-0.01,0.60,9.91
-0.42,-0.01,0.05,-0.06,0.51,9.89
-0.70,-0.06,0.04,-0.07,0.14,9.79
-0.24,-0.06,0.06,-0.03,-0.12,9.68
0.74,0.12,0.06,0.04,0.30,9.79
0.33,0.14,0.05,-0.03,0.53,9.90
-0.29,0.05,0.02,-0.08,0.44,9.92
-0.46,-0.09,-0.03,-0.07,0.17,9.84
0.61,-0.08,0.05,0.04,0.12,9.67
0.80,0.01,0.05,0.06,0.41,9.74
0.47,0.06,0.04,0.01,0.63,9.81
-0.01,-0.00,0.02,-0.02,0.59,9.83
0.23,-0.07,0.07,-0.00,0.28,9.67
0.70,0.00,0.09,0.06,0.39,9.69
0.80,0.09,0.09,0.06,0.61,9.77
0.05,0.10,0.08,-0.01,0.68,9.92
-0.10,0.06,0.09,-0.02,0.49,9.89
0.14,0.03,0.07,0.00,0.34,9.87
0.49,0.06,0.07,0.02,0.39,9.88
0.62,0.08,0.10,0.01,0.58,9.92
0.04,0.04,0.09,-0.03,0.73,9.93
-0.08,-0.03,0.10,-0.04,0.62,9.85
0.19,-0.08,0.13,0.01,0.55,9.78
0.53,-0.04,0.12,0.02,0.64,9.74
0.46,-0.00,0.14,0.01,0.98,9.79
0.13,0.04,0.13,-0.00,0.98,9.79
-0.09,0.06,0.12,0.00,0.81,9.78
-0.01,0.13,0.13,0.01,0.63,9.79
0.45,0.19,0.11,-0.05,0.67,9.92
0.39,0.11,0.12,-0.07,0.79,9.98
0.18,0.01,0.11,-0.07,0.83,9.96
0.06,-0.08,0.09,-0.03,0.79,9.88
0.44,-0.02,0.08,-0.01,0.79,9.70
0.64,0.02,0.10,-0.01,0.95,9.70
0.66,-0.01,0.09,-0.02,1.13,9.71
0.47,-0.03,0.08,0.00,1.23,9.71
0.17,0.04,0.09,0.05,1.09,9.70
0.21,0.15,0.11,0.04,0.97,9.74
0.31,0.22,0.10,0.00,0.92,9.82
0.40,0.23,0.11,-0.05,0.94,9.93
0.35,-0.05,0.13,-0.08,0.99,10.04
0.32,-0.13,0.12,-0.04,1.02,9.99
0.35,-0.16,0.12,-0.01,1.03,9.89
0.53,-0.17,0.13,-0.00,1.08,9.77
0.97,-0.22,0.14,0.03,1.29,9.62
1.03,-0.22,0.18,0.07,1.33,9.62
1.06,-0.02,0.19,0.09,1.45,9.71
0.90,0.15,0.19,0.03,1.52,9.78
0.15,0.09,0.18,-0.05,1.40,9.90
0.17,0.02,0.22,-0.05,1.24,9.90
0.46,-0.05,0.22,-0.00,1.15,9.94
0.66,-0.09,0.21,0.00,1.22,9.96
0.46,-0.13,0.19,-0.06,1.47,9.96
0.33,-0.24,0.17,-0.04,1.49,9.92
0.37,-0.30,0.18,-0.03,1.46,9.85
0.48,-0.31,0.18,-0.02,1.48,9.79
0.73,-0.25,0.18,0.00,1.62,9.76
0.67,-0.24,0.18,0.01,1.63,9.75
0.59,-0.12,0.18,0.03,1.70,9.84
0.42,-0.05,0.17,-0.02,1.72,9.89
0.18,-0.11,0.17,-0.07,1.55,9.82
0.37,-0.13,0.16,-0.04,1.52,9.82
0.54,-0.10,0.19,-0.00,1.56,9.88
0.53,-0.13,0.17,-0.03,1.64,9.88
0.43,-0.22,0.19,-0.04,1.73,9.79
0.53,-0.26,0.20,-0.02,1.76,9.75
0.62,-0.26,0.19,0.01,1.77,9.71
0.65,-0.20,0.22,0.03,1.78,9.75
0.63,-0.19,0.23,-0.09,1.90,9.71
0.56,-0.29,0.24,-0.01,1.94,9.79
0.44,-0.30,0.26,0.12,1.92,9.89
0.17,-0.22,0.29,0.12,1.86,9.86
0.02,0.01,0.31,0.02,1.56,9.83
0.35,0.05,0.32,-0.01,1.54,9.91
0.50,-0.02,0.34,-0.02,1.67,10.03
0.36,-0.13,0.33,-0.06,1.81,10.08
-0.21,-0.41,0.29,-0.02,1.73,9.95
-0.03,-0.43,0.29,0.01,1.65,9.81
0.27,-0.36,0.29,0.01,1.72,9.76
0.30,-0.32,0.30,0.10,1.86,9.81
0.03,-0.00,0.31,0.05,1.89,9.82
-0.24,0.06,0.31,0.01,1.85,9.80
-0.36,0.05,0.28,0.05,1.73,9.81
-0.18,0.11,0.27,0.06,1.65,9.78
0.02,0.33,0.28,0.11,1.64,9.86
-0.02,0.31,0.27,0.05,1.68,9.87
-0.12,0.33,0.25,0.05,1.69,9.88
-0.19,0.35,0.27,0.05,1.64,9.90
-0.11,0.32,0.24,0.04,1.60,9.82
0.04,0.29,0.28,0.07,1.63,9.80
0.12,0.30,0.27,0.08,1.72,9.78
0.08,0.33,0.23,0.11,1.82,9.79
-0.23,0.39,0.29,0.11,1.76,9.76
-0.34,0.41,0.30,0.18,1.61,9.81
-0.17,0.50,0.30,0.10,1.52,9.78
0.14,0.56,0.33,-0.01,1.55,9.79
-0.06,0.42,0.35,0.03,1.80,10.06
-0.44,0.34,0.34,0.01,1.71,10.03
-0.58,0.28,0.34,0.04,1.56,9.97
-0.23,0.32,0.37,0.02,1.50,9.90
-0.15,0.36,0.36,-0.08,1.78,9.97
-0.54,0.29,0.31,-0.05,1.82,9.97
-0.79,0.23,0.30,-0.04,1.66,9.88
-0.80,0.27,0.27,0.07,1.46,9.88
-0.24,0.45,0.30,-0.18,1.46,9.74
-0.31,0.34,0.29,-0.05,1.58,9.93
-0.55,0.27,0.27,-0.03,1.60,9.98
-0.69,0.24,0.26,-0.15,1.50,9.79
-0.14,0.13,0.20,-0.15,1.41,9.62
0.10,0.10,0.21,-0.14,1.50,9.59
0.06,0.11,0.18,-0.00,1.66,9.73
-0.05,0.08,0.17,-0.12,1.73,9.61
-0.16,-0.05,0.14,-0.04,1.55,9.61
0.06,0.04,0.11,-0.14,1.46,9.54
0.27,0.14,0.09,-0.05,1.50,9.70
0.22,0.17,0.11,-0.10,1.59,9.83
-0.18,-0.13,0.09,-0.04,1.44,9.95
-0.02,-0.15,0.11,-0.02,1.33,9.88
0.33,-0.05,0.12,-0.03,1.35,9.81
0.53,0.05,0.14,-0.11,1.54,9.84
-0.17,-0.14,0.08,0.06,1.76,10.04
-0.40,-0.23,0.11,0.00,1.60,9.89
-0.24,-0.27,0.13,-0.01,1.45,9.76
0.02,-0.26,0.17,0.09,1.46,9.86
-0.28,-0.19,0.17,-0.03,1.62,10.05
-0.57,-0.25,0.15,-0.00,1.55,10.17
-0.70,-0.38,0.12,-0.10,1.43,10.10
-0.59,-0.60,0.16,-0.08,1.31,9.99
-0.24,-0.68,0.20,0.14,1.26,9.90
-0.11,-0.48,0.25,0.06,1.37,9.77
-0.04,-0.30,0.25,-0.07,1.47,9.67
-0.08,-0.24,0.24,0.10,1.53,9.72
-0.13,0.06,0.25,0.03,1.40,9.55
0.17,0.17,0.30,0.13,1.29,9.58
0.63,0.25,0.30,0.08,1.36,9.56
0.92,0.34,0.34,-0.02,1.57,9.54
0.33,0.32,0.28,-0.04,1.66,9.70
0.01,0.23,0.27,-0.03,1.41,9.70
0.24,0.36,0.23,0.12,1.21,9.90
0.69,0.35,0.22,-0.07,1.24,9.85
0.68,-0.38,0.16,-0.03,1.72,10.20
0.03,-0.53,0.17,0.03,1.75,10.16
-0.39,-0.49,0.15,-0.07,1.56,9.97
-0.39,-0.54,0.13,-0.02,1.36,9.88
0.05,-0.43,0.13,-0.04,1.54,10.00
-0.29,-0.36,0.14,-0.06,1.60,10.01
-0.56,-0.39,0.09,-0.05,1.54,10.01
-0.71,-0.39,0.14,-0.01,1.41,9.94
-0.36,-0.17,0.16,-0.14,1.24,9.83
-0.15,-0.24,0.17,-0.06,1.26,9.85
-0.07,-0.16,0.12,0.07,1.36,9.90
-0.11,0.05,0.18,0.03,1.43,9.75
-0.11,0.06,0.24,0.06,1.38,9.67
0.08,0.16,0.26,0.09,1.37,9.72
0.18,0.31,0.27,0.11,1.43,9.70
0.23,0.39,0.29,0.06,1.50,9.79
0.17,-0.07,0.27,0.04,1.45,9.74
0.32,-0.08,0.30,0.23,1.41,9.87
0.45,0.00,0.35,0.05,1.41,9.67
0.55,-0.09,0.35,-0.07,1.45,9.62
0.59,-0.27,0.26,0.04,1.56,9.85
0.43,-0.24,0.30,-0.03,1.58,9.83
0.30,-0.49,0.33,-0.11,1.48,9.74
0.48,-0.78,0.27,-0.08,1.43,9.75
0.88,-0.71,0.28,-0.07,1.61,9.68
0.56,-0.62,0.28,-0.05,1.70,9.79
0.14,-0.47,0.22,-0.09,1.65,9.91
-0.07,-0.36,0.16,-0.18,1.54,9.87
0.20,-0.44,0.11,-0.26,1.33,9.92
0.24,-0.60,0.07,-0.20,1.32,9.84
0.36,-0.52,0.04,0.00,1.28,9.85
0.42,-0.29,0.01,0.03,1.31,9.70
0.36,0.07,-0.02,-0.01,1.61,9.83
-0.21,0.27,-0.07,0.15,1.53,10.17
-0.43,0.42,-0.07,0.02,1.38,10.20
-0.30,0.28,0.01,-0.08,1.16,10.20
0.56,-0.40,0.02,-0.07,1.35,10.13
0.43,-0.49,0.03,0.10,1.53,10.13
-0.14,-0.45,0.02,0.29,1.58,10.07
-0.61,-0.34,0.08,0.09,1.40,9.81
-0.23,-0.42,0.18,0.20,1.00,9.85
0.21,-0.48,0.23,0.05,1.06,9.85
0.35,-0.68,0.24,-0.08,1.27,9.81
0.31,-0.95,0.27,-0.03,1.45,9.84
0.32,-1.24,0.36,0.10,1.39,9.39
0.60,-1.05,0.43,0.30,1.31,9.25
0.85,-0.64,0.42,0.43,1.33,9.23
1.02,-0.11,0.45,0.14,1.52,9.19
0.61,0.10,0.45,-0.00,1.53,9.48
0.55,0.14,0.45,0.13,1.35,9.68
0.74,0.30,0.47,0.00,1.13,9.58
1.16,0.21,0.52,-0.10,1.02,9.52
1.78,-0.11,0.42,-0.04,1.37,9.66
1.52,0.01,0.44,0.08,1.63,9.90
0.83,0.12,0.42,-0.11,1.60,9.87
0.49,-0.24,0.32,-0.25,1.37,9.60
1.63,-0.18,0.36,0.29,1.26,10.02
1.78,0.07,0.36,-0.12,1.66,9.76
1.20,-0.09,0.41,-0.17,1.92,9.96
0.21,-0.15,0.25,0.13,1.73,10.23
-0.16,0.58,0.28,0.15,0.82,9.97
0.62,0.80,0.23,0.03,0.69,9.92
1.18,0.76,0.23,-0.09,1.09,10.08
1.07,0.70,0.23,-0.07,1.53,10.23
-0.19,0.32,0.12,0.01,1.43,9.85
0.04,0.26,0.09,0.06,1.12,9.46
0.75,0.43,0.11,0.15,1.13,9.38
1.29,0.70,0.15,0.35,1.40,9.69
0.25,0.60,0.19,-0.21,1.79,9.89
-0.09,0.16,0.19,-0.12,1.50,10.05
0.05,-0.13,0.19,0.14,1.16,10.24
0.56,-0.15,0.21,-0.02,1.07,10.01
0.72,-0.03,0.35,0.29,1.31,10.25
0.18,0.26,0.33,0.19,1.37,10.12
-0.12,0.54,0.41,0.18,1.35,10.03
0.11,0.92,0.41,0.13,1.35,10.03
-0.20,1.34,0.45,0.17,1.69,10.01
-0.54,1.67,0.44,0.17,1.74,9.97
-1.11,1.80,0.49,0.24,1.68,9.85
-1.29,2.08,0.47,0.30,1.63,9.86
-1.75,2.51,0.53,0.16,1.84,9.85
-2.33,2.49,0.45,0.06,1.95,10.05
-3.54,2.35,0.45,-0.24,1.72,10.09
-4.72,2.06,0.19,-0.44,1.07,10.00
-4.07,0.52,-0.04,-0.31,0.16,9.72
-2.24,-0.33,-0.03,-0.23,0.20,9.33
-0.18,-0.94,0.17,-0.10,0.85,9.11
0.78,-1.36,0.40,0.01,1.60,8.97
-0.74,-0.52,0.38,0.26,1.69,9.06
-1.50,0.54,0.32,-0.04,1.15,8.83
-0.91,1.21,0.14,-0.17,0.73,8.92
0.56,1.40,0.11,-0.14,0.86,9.58
1.14,0.35,0.38,-0.54,1.73,10.35
0.53,-0.19,0.42,-0.18,1.44,10.52
0.40,-0.10,0.38,-0.08,0.89,10.08
1.20,0.57,0.38,-0.14,0.62,9.80
2.61,1.26,0.17,-0.25,1.58,10.09
2.41,1.24,0.15,-0.03,1.97,10.64
1.33,1.30,0.24,0.12,1.98,10.96
-0.32,0.65,0.36,-0.29,1.57,10.42
-0.17,0.31,0.27,-0.13,1.24,10.25
0.33,0.41,0.25,-0.04,1.23,10.14
0.46,0.54,0.23,-0.01,1.52,10.21
-0.17,0.48,0.18,0.10,1.83,10.52
-2.26,-0.17,0.26,-0.22,1.38,10.36
-2.15,-0.62,0.27,-0.07,0.82,10.28
-1.22,-0.90,0.28,-0.12,0.70,9.98
-0.26,-1.04,0.32,-0.25,1.11,9.78
-1.17,-1.29,0.26,-0.07,2.05,9.66
-2.28,-1.41,0.25,-0.11,1.80,9.20
-2.34,-1.18,0.29,0.15,1.21,8.93
-1.41,-0.64,0.33,0.24,0.86,8.81
0.22,0.14,0.43,-0.02,1.43,9.10
-0.06,0.25,0.42,0.01,1.77,9.51
-0.79,0.39,0.37,-0.13,1.68,9.64
-1.26,0.40,0.33,-0.14,1.27,9.57
0.26,0.41,0.33,-0.06,0.79,9.66
0.86,0.39,0.38,0.01,1.16,9.95
0.75,0.51,0.38,-0.09,1.61,10.18
-0.09,0.39,0.37,-0.13,1.82,10.21
-0.99,-0.01,0.34,-0.04,1.44,10.12
-0.74,-0.02,0.36,0.06,1.24,10.08
-0.26,0.11,0.40,0.11,1.31,10.13
-0.26,0.29,0.43,0.05,1.53,10.28
-1.52,0.00,0.37,-0.07,1.55,10.44
-1.81,-0.20,0.37,-0.04,1.18,10.36
-1.46,-0.36,0.41,-0.13,0.91,10.11
-0.86,-0.46,0.42,-0.02,0.92,10.00
-0.44,-0.68,0.46,-0.05,1.40,9.74
-0.77,-0.70,0.45,0.10,1.45,9.65
-1.00,-0.36,0.43,0.15,1.39,9.57
-1.02,-0.07,0.48,0.08,1.25,9.35
-0.25,0.13,0.50,0.08,1.25,9.44
-0.09,0.25,0.48,0.05,1.37,9.45
0.10,0.33,0.47,-0.09,1.57,9.39
-0.02,0.30,0.52,-0.01,1.58,9.42
-0.49,0.51,0.50,0.20,1.20,9.27
-0.18,0.91,0.58,0.29,0.94,9.25
0.63,1.27,0.61,0.11,0.99,9.08
1.31,1.34,0.67,0.03,1.32,9.19
0.72,0.96,0.57,-0.18,1.76,8.84
0.62,0.51,0.60,-0.08,1.43,8.43
1.49,0.12,0.64,-0.03,1.19,7.78
2.97,-0.10,0.67,0.17,1.26,7.48
2.91,0.93,0.45,-0.01,1.72,7.98
1.53,1.80,0.42,0.67,1.69,9.23
0.61,2.52,0.42,0.41,1.38,10.44
0.91,2.31,0.39,-0.79,1.25,10.95
1.74,-1.06,0.46,-1.19,1.43,12.59
0.61,-2.30,0.28,-0.92,1.37,12.32
-0.19,-2.66,0.26,-0.45,1.09,11.33
0.33,-2.72,0.31,-0.25,0.81,9.89
2.17,-0.91,0.58,0.85,1.64,9.75
1.11,0.62,0.54,0.47,2.10,9.83
-0.75,1.84,0.38,-0.01,2.33,10.28
-2.59,2.06,0.33,-0.58,1.99,10.41
-1.81,0.36,0.45,-0.11,0.82,11.14
-0.43,-0.39,0.57,0.02,0.82,10.87
0.36,-0.56,0.63,-0.19,1.07,10.29
-0.11,-0.42,0.59,-0.04,1.25,9.97
-0.65,0.31,0.45,0.25,1.51,9.82
-0.58,0.47,0.54,0.33,1.61,10.09
-0.79,0.26,0.55,-0.06,1.55,9.97
-1.12,-0.33,0.56,-0.37,1.27,9.73
0.27,-0.76,0.45,-0.02,1.00,9.38
1.32,-0.69,0.48,0.01,1.36,9.28
1.46,-0.70,0.49,0.03,1.87,9.32
0.53,-0.67,0.43,0.13,2.11,9.34
-0.98,0.40,0.37,0.14,1.31,9.27
-0.56,0.76,0.36,-0.14,1.04,9.35
0.17,0.59,0.29,-0.41,1.20,9.64
0.30,0.02,0.26,-0.34,1.54,10.12
-1.20,-1.03,0.30,-0.28,1.42,9.87
-1.29,-1.21,0.29,-0.21,1.07,9.43
-0.54,-1.05,0.29,-0.02,0.96,9.23
0.07,-0.59,0.30,0.22,1.25,9.43
-0.64,0.17,0.37,-0.04,1.77,9.78
-1.27,0.27,0.35,-0.07,1.49,9.97
-1.26,0.28,0.41,-0.08,1.07,9.99
-0.42,0.29,0.42,-0.10,0.83,10.05
0.83,0.28,0.46,-0.11,1.31,10.22
0.32,0.15,0.45,-0.10,1.51,10.26
-0.20,0.07,0.45,0.13,1.43,10.25
-0.20,0.15,0.46,0.16,1.15,9.99
0.80,0.14,0.54,-0.16,1.06,9.73
1.10,-0.11,0.47,-0.13,1.27,9.92
1.09,-0.27,0.42,0.03,1.56,10.17
0.74,-0.54,0.47,-0.31,1.68,9.79
0.28,-1.18,0.35,0.04,1.36,9.85
0.38,-1.00,0.30,-0.11,1.20,9.71
0.59,-0.80,0.28,-0.18,1.31,9.97
0.62,-1.08,0.27,-0.38,1.61,10.03
-0.51,-2.05,0.13,-0.22,1.55,10.34
-1.00,-2.01,0.11,-0.23,1.15,9.97
-0.80,-1.84,0.06,-0.35,0.85,9.63
0.00,-1.69,-0.02,-0.15,0.88,9.52
0.61,-1.27,0.07,-0.10,1.89,9.60
-0.37,-1.10,0.04,-0.04,2.01,9.55
-1.39,-0.96,-0.03,0.11,1.54,9.38
-1.49,-0.52,-0.01,0.18,0.90,9.10
1.00,0.25,0.07,0.10,0.92,8.90
1.88,0.42,0.13,0.14,1.48,9.26
1.55,0.57,0.16,0.28,1.78,9.71
0.25,0.75,0.11,0.36,1.67,10.02
0.08,0.98,0.17,0.15,0.90,9.69
0.93,0.90,0.24,0.25,0.83,9.78
1.53,0.98,0.23,0.33,1.23,9.84
1.29,1.00,0.24,0.33,1.62,9.93
-0.06,1.05,0.27,0.38,1.51,9.81
0.05,1.29,0.28,0.43,1.31,9.91
0.35,1.41,0.31,0.23,1.34,9.99
0.28,1.18,0.38,0.17,1.48,10.31
-0.42,0.39,0.40,-0.02,1.41,10.31
-0.33,0.16,0.45,0.05,1.27,10.20
-0.07,0.04,0.46,-0.06,1.32,9.92
-0.21,-0.12,0.50,-0.03,1.36,9.73
-0.33,0.28,0.50,0.08,1.19,9.27
0.07,0.48,0.52,-0.08,1.20,9.06
0.28,0.57,0.46,-0.17,1.41,9.16
0.03,0.66,0.43,-0.13,1.54,9.40
-0.48,0.62,0.41,-0.25,1.28,9.58
0.07,0.50,0.43,-0.24,1.16,9.75
0.56,0.40,0.38,-0.30,1.37,10.01
0.40,0.37,0.41,-0.38,1.69,10.26
-1.05,-0.14,0.23,-0.48,1.48,10.30
-1.03,-0.35,0.21,-0.38,1.08,10.33
-0.46,-0.44,0.15,-0.32,0.94,10.33
0.05,-0.47,0.17,-0.33,1.18,10.50
-0.99,-0.72,0.09,-0.37,1.65,10.62
-1.47,-0.72,0.06,-0.17,1.41,10.63
-1.54,-0.61,0.01,-0.12,1.10,10.40
-1.13,-0.41,-0.00,-0.28,1.01,10.04
-0.72,-0.10,-0.01,0.00,1.30,9.97
-0.73,-0.04,-0.03,-0.19,1.45,9.77
-0.73,-0.16,-0.04,-0.11,1.48,9.71
-0.78,-0.38,-0.06,-0.09,1.43,9.66
-1.46,-0.74,-0.11,-0.00,1.00,9.73
-1.16,-0.80,-0.10,-0.06,0.74,9.74
-0.27,-1.12,-0.01,-0.13,0.80,9.59
0.63,-1.57,0.16,-0.16,1.07,9.64
0.16,-1.40,0.08,0.24,1.53,9.82
-0.54,-0.84,0.06,0.15,1.28,9.57
-0.35,-0.33,0.08,0.11,0.97,9.37
0.55,-0.01,0.14,0.23,0.93,9.57
1.10,0.38,0.31,0.12,1.79,9.86
0.19,0.34,0.31,0.00,1.80,9.61
-0.41,0.30,0.23,0.06,1.42,9.21
-0.03,0.59,0.25,0.42,1.01,9.14
0.73,1.44,0.31,0.25,1.23,9.26
0.25,1.48,0.26,0.25,1.43,9.79
-0.46,1.16,0.30,0.01,1.38,9.80
-0.52,0.66,0.42,-0.06,1.05,9.79
0.84,0.02,0.42,-0.06,0.97,9.49
1.15,-0.12,0.41,0.02,1.28,9.56
0.75,-0.06,0.35,0.15,1.55,9.54
0.28,0.06,0.35,0.10,1.60,9.31
0.12,0.48,0.50,0.20,1.32,9.51
0.14,0.53,0.51,-0.15,1.24,9.41
0.24,0.55,0.47,-0.18,1.21,9.64
0.44,0.48,0.34,-0.41,1.25,9.64
0.10,-0.18,0.28,-0.18,1.41,9.95
-0.39,-0.39,0.26,-0.05,1.26,9.85
-0.44,-0.35,0.28,-0.16,1.04,9.65
0.19,-0.19,0.27,-0.29,1.02,9.54
0.43,-0.23,0.17,-0.32,1.73,10.20
-0.63,-0.21,0.06,-0.21,1.78,10.50
-1.58,-0.37,0.03,-0.25,1.40,10.36
-1.25,-0.57,0.06,-0.23,0.96,10.17
0.39,-0.43,0.21,0.12,1.18,10.11
0.25,0.15,0.21,0.14,1.59,10.20
-0.75,0.57,0.21,0.17,1.62,10.15
-1.32,1.03,0.15,0.16,1.30,10.17
-0.37,1.90,0.28,0.33,0.82,10.44
0.13,2.08,0.32,0.00,1.08,10.53
-0.05,1.73,0.36,-0.26,1.31,10.39
-0.31,1.24,0.29,-0.06,1.30,10.32
-0.10,1.25,0.31,0.24,1.15,9.94
0.12,1.25,0.32,0.14,1.31,9.88
-0.09,1.13,0.27,0.05,1.47,10.03
-0.71,0.79,0.22,-0.18,1.55,9.95
-1.32,-0.19,0.30,-0.14,1.12,10.30
-1.00,-0.83,0.26,-0.28,0.96,10.12
-0.43,-1.26,0.28,-0.33,0.98,10.03
-0.10,-1.55,0.25,-0.39,1.24,9.64
-0.80,-1.66,0.17,-0.08,1.56,9.36
-1.23,-1.34,0.20,0.08,1.36,9.14
-1.19,-0.81,0.21,-0.02,1.10,8.95
-0.73,-0.32,0.18,-0.24,1.04,8.77
-0.08,0.15,0.18,-0.08,1.43,9.39
-0.47,0.31,0.19,-0.24,1.55,9.45
-1.02,0.17,0.19,-0.32,1.34,9.37
-0.84,0.06,0.12,-0.29,1.00,9.31
0.52,0.11,0.13,-0.15,1.06,9.34
0.61,0.00,0.12,-0.20,1.35,9.41
0.38,-0.31,0.05,-0.24,1.44,9.41
0.13,-0.56,0.00,-0.08,1.27,9.36
0.80,-0.34,-0.01,-0.15,0.94,9.28
1.35,-0.44,-0.04,-0.11,1.04,9.43
1.76,-0.64,-0.05,-0.02,1.21,9.70
1.82,-0.77,0.00,-0.01,1.40,9.77
1.49,-0.78,0.03,0.13,1.31,9.86
1.40,-0.50,0.09,0.20,1.15,9.90
1.53,-0.04,0.13,0.20,1.00,9.99
1.98,0.31,0.15,0.15,1.06,10.20
1.72,0.68,0.12,0.09,1.57,10.96
0.88,0.69,0.15,0.01,1.55,11.11
0.32,0.63,0.13,-0.04,1.33,11.09
0.31,0.44,0.12,-0.10,1.06,10.85
1.09,0.16,0.14,0.25,1.33,10.65
0.81,0.14,0.17,0.13,1.68,10.48
-0.29,0.02,0.14,0.13,1.73,10.29
-1.15,0.07,0.12,0.12,1.43,10.23
-0.58,-0.04,0.17,0.01,0.82,9.93
0.20,-0.32,0.19,-0.18,0.89,9.77
0.49,-0.69,0.12,-0.22,1.12,9.42
0.44,-0.87,0.13,0.03,1.27,9.29
0.54,-0.24,-0.03,0.09,1.10,8.67
0.92,0.13,-0.03,0.17,1.04,8.68
1.38,0.33,-0.05,0.08,1.06,8.75
1.62,0.40,-0.02,-0.06,1.14,8.89
2.33,0.19,-0.10,-0.28,1.14,9.16
2.74,0.01,-0.12,-0.22,1.19,9.30
3.05,-0.13,-0.22,-0.19,1.29,9.33
3.02,-0.16,-0.24,-0.09,1.39,9.37
2.38,0.63,-0.31,0.17,1.49,9.77
2.04,1.03,-0.26,-0.07,1.48,9.93
1.78,1.10,-0.34,-0.09,1.45,10.32
1.36,1.00,-0.35,-0.05,1.47,10.78
0.56,0.49,-0.37,-0.21,1.23,10.74
0.62,0.09,-0.34,-0.03,1.15,10.61
0.73,0.09,-0.32,0.19,1.21,10.53
0.54,0.45,-0.27,0.33,1.41,10.54
-0.98,1.09,-0.20,0.11,1.55,10.58
-1.57,1.05,-0.20,0.06,1.25,10.53
-1.39,0.96,-0.16,0.07,0.89,10.45
-0.73,0.91,-0.14,0.07,0.79,10.37
-0.39,0.57,-0.06,0.06,1.19,10.10
-0.56,0.59,-0.10,0.18,1.33,9.97
-0.74,0.51,-0.05,0.15,1.29,9.65
-0.66,0.49,-0.05,0.08,1.15,9.58
-0.36,0.47,-0.11,-0.18,1.15,9.82
-0.40,0.08,-0.17,-0.33,1.24,10.00
-0.16,-0.63,-0.10,-0.45,1.21,10.02
0.11,-1.25,-0.13,-0.40,1.14,9.95
0.48,-1.20,-0.12,-0.02,1.04,9.50
0.79,-0.81,-0.20,-0.10,1.10,9.17
1.06,-0.34,-0.21,0.07,1.29,9.25
0.99,0.31,-0.26,0.11,1.53,9.47
-0.40,1.03,-0.24,-0.19,1.41,9.76
-0.47,0.86,-0.30,-0.29,1.02,9.80
0.06,0.75,-0.34,-0.18,0.81,10.00
0.59,0.80,-0.36,-0.18,0.93,10.14
0.23,0.36,-0.40,-0.15,1.67,10.26
-0.78,0.14,-0.47,0.04,1.61,10.34
-1.58,0.34,-0.48,0.08,1.25,10.16
-1.52,0.35,-0.43,0.08,0.79,9.93
0.03,0.02,-0.36,0.05,1.05,9.84
-0.10,0.11,-0.31,0.18,1.36,9.81
-0.81,0.34,-0.29,0.33,1.45,9.62
-1.08,0.76,-0.22,0.45,1.17,9.36
-0.02,2.26,-0.11,0.58,0.84,9.26
0.38,3.01,-0.09,0.38,1.18,9.57
0.16,3.17,-0.11,0.00,1.54,9.78
-0.67,2.72,-0.14,-0.04,1.51,10.06
-0.66,2.08,-0.13,-0.05,0.85,9.78
0.01,1.51,-0.11,0.00,0.84,9.53
0.45,1.00,-0.10,0.11,1.21,9.67
0.14,0.79,-0.17,0.05,1.59,9.74
-1.63,0.54,-0.10,-0.17,1.50,9.96
-1.93,0.02,-0.09,-0.29,1.13,9.90
-1.63,-0.40,-0.09,-0.16,0.88,10.07
-0.95,-0.52,-0.05,-0.25,0.88,9.91
-0.95,-0.85,-0.10,-0.37,1.51,9.57
-1.59,-0.88,-0.15,-0.13,1.47,9.47
-2.13,-0.46,-0.18,0.17,1.16,9.44
-2.01,0.31,-0.15,0.09,0.80,9.26
-0.44,1.17,-0.10,-0.30,0.89,9.49
-0.02,1.18,-0.11,-0.38,1.19,9.82
-0.32,1.07,-0.22,-0.28,1.35,9.93
-0.56,0.94,-0.30,-0.33,1.28,9.68
-0.10,1.09,-0.44,0.03,0.73,9.53
0.59,1.24,-0.42,0.03,0.95,9.72
0.84,1.26,-0.36,0.00,1.43,10.24
0.11,0.92,-0.34,-0.15,1.68,10.62
-1.54,-0.08,-0.35,-0.29,1.10,10.64
-1.05,-0.37,-0.38,-0.20,0.71,10.46
-0.35,-0.57,-0.37,-0.16,0.81,10.36
-0.27,-0.55,-0.37,0.03,1.29,10.49
-1.97,-0.35,-0.24,0.14,1.74,10.41
-3.14,0.04,-0.26,0.22,1.36,10.34
-3.47,0.58,-0.31,0.06,1.00,10.02
-2.98,0.89,-0.24,-0.15,0.83,9.77
-2.35,0.66,-0.22,0.13,1.30,9.70
-2.86,0.65,-0.15,0.24,1.45,9.50
-3.57,0.67,-0.15,0.05,1.28,8.97
-3.72,0.59,-0.16,-0.18,0.96,8.51
-2.21,0.52,-0.23,0.18,0.71,8.51
-1.44,0.60,-0.14,-0.04,0.88,8.63
-1.18,0.28,-0.18,-0.20,1.09,8.69
-1.06,-0.28,-0.19,-0.15,1.07,8.78
0.14,-0.52,-0.23,-0.21,0.74,8.41
1.24,-0.37,-0.20,-0.06,0.87,8.46
1.67,-0.12,-0.22,0.08,1.08,8.85
1.32,0.41,-0.26,0.04,1.28,9.29
1.05,0.78,-0.35,-0.27,1.10,10.07
1.21,0.48,-0.36,-0.33,1.00,10.61
1.50,0.27,-0.39,-0.40,1.10,11.01
1.36,-0.07,-0.33,-0.38,1.26,11.26
0.34,-0.60,-0.29,0.10,1.22,10.97
0.09,-0.06,-0.26,0.15,1.13,10.74
-0.20,0.53,-0.26,0.12,1.18,10.58
-0.67,0.68,-0.19,-0.02,1.25,10.61
-1.45,0.13,-0.18,-0.09,1.11,10.56
-1.62,-0.08,-0.17,-0.10,0.89,10.39
-1.21,-0.38,-0.18,-0.45,0.79,9.68
-0.51,-0.80,-0.13,-0.25,0.82,9.47
-0.35,-0.76,-0.17,0.20,1.14,9.10
-0.46,-0.55,-0.03,0.18,1.02,8.79
-0.11,-0.44,-0.10,0.10,0.81,8.57
0.68,-0.35,-0.18,-0.23,0.76,8.36
2.06,-0.17,-0.26,-0.02,0.99,8.81
2.32,-0.25,-0.23,-0.16,1.15,8.79
2.17,-0.36,-0.29,-0.06,1.04,8.82
2.54,-0.21,-0.39,-0.15,0.93,8.68
3.74,0.30,-0.46,0.17,1.12,9.31
3.58,0.64,-0.50,0.19,1.51,9.77
3.01,0.67,-0.43,-0.30,1.69,10.02
2.19,0.33,-0.50,-0.28,1.59,10.56
1.16,-0.50,-0.64,-0.62,1.02,10.95
1.44,-0.94,-0.68,-0.45,1.03,11.12
1.49,-1.57,-0.66,-0.30,1.32,11.27
0.80,-1.84,-0.69,-0.11,1.52,11.16
-0.97,-1.38,-0.50,0.16,1.31,10.70
-1.30,-0.88,-0.53,0.14,1.08,10.46
-1.53,-0.53,-0.50,0.24,0.95,10.35
-1.28,-0.09,-0.42,0.12,0.95,10.21
-1.22,0.13,-0.41,0.08,1.01,9.87
-1.06,0.33,-0.40,0.14,0.95,9.73
-0.91,0.61,-0.40,0.21,0.85,9.51
-0.55,0.87,-0.33,0.24,0.88,9.36
-0.24,1.05,-0.43,0.26,1.00,9.47
-0.32,1.01,-0.38,0.23,0.98,9.57
-0.14,0.86,-0.35,-0.06,0.87,9.63
0.12,0.43,-0.38,-0.26,0.76,9.65
0.89,-0.61,-0.42,-0.04,1.05,10.20
0.83,-0.77,-0.38,-0.13,1.20,10.27
0.36,-1.01,-0.39,-0.08,1.16,10.23
0.46,-1.13,-0.38,-0.05,1.12,10.09
0.82,-0.76,-0.37,0.09,1.23,9.96
0.58,-0.53,-0.36,0.03,1.28,9.94
0.23,-0.24,-0.40,-0.06,1.21,9.87
-0.05,0.01,-0.37,0.06,1.09,10.08
0.01,-0.03,-0.43,-0.42,0.81,9.86
0.50,-0.45,-0.40,-0.25,0.86,10.00
0.54,-0.60,-0.53,-0.38,1.00,9.84
0.21,-0.78,-0.56,-0.18,1.08,9.55
0.01,-1.32,-0.58,-0.24,0.94,9.06
0.29,-1.49,-0.53,0.14,0.90,9.07
0.78,-1.31,-0.44,0.22,1.01,9.31
0.56,-1.01,-0.44,-0.01,1.21,9.36
-0.09,-0.86,-0.45,-0.26,1.07,9.57
0.14,-0.82,-0.51,0.06,0.85,9.79
0.71,-0.54,-0.41,0.17,0.81,9.91
0.74,-0.19,-0.37,0.18,0.84,10.05
0.92,0.23,-0.28,0.17,1.10,10.00
0.67,0.29,-0.33,0.03,1.19,10.19
0.26,0.32,-0.39,0.00,1.32,10.27
-0.06,0.06,-0.35,-0.02,1.14,10.32
-0.04,-0.43,-0.35,0.06,0.81,10.02
0.51,-0.40,-0.30,0.05,0.80,9.78
0.96,-0.48,-0.28,0.05,1.05,9.63
0.97,-0.55,-0.27,0.12,1.32,9.69
0.12,-0.43,-0.29,0.16,1.22,9.68
-0.07,-0.26,-0.33,0.03,0.90,9.70
0.29,-0.21,-0.36,-0.11,0.82,9.92
1.14,-0.43,-0.33,-0.39,0.97,10.09
1.11,-1.48,-0.35,-0.24,1.54,10.62
0.40,-1.52,-0.44,-0.12,1.52,10.38
-0.07,-1.35,-0.46,0.10,1.26,10.09
-0.04,-1.04,-0.40,0.24,1.06,9.96
0.20,0.19,-0.36,0.29,1.54,10.28
-0.58,0.43,-0.32,-0.01,1.74,10.25
-1.54,0.36,-0.36,-0.22,1.56,10.15
-2.04,0.32,-0.40,-0.10,1.06,10.05
-0.39,0.44,-0.44,0.05,0.67,9.51
0.45,0.36,-0.38,0.05,1.15,9.37
0.19,0.25,-0.42,0.21,1.65,9.51
-0.86,0.15,-0.39,0.22,1.79,9.35
-1.51,0.23,-0.42,0.23,0.82,9.31
-0.58,0.17,-0.38,0.01,0.66,9.35
0.43,-0.26,-0.36,-0.41,0.90,9.56
0.89,-1.02,-0.41,-0.45,1.24,9.79
0.42,-2.46,-0.49,-0.33,1.17,9.38
0.74,-2.52,-0.46,0.00,0.96,9.18
1.39,-2.33,-0.39,0.19,0.94,9.11
1.86,-1.73,-0.41,0.28,1.16,9.30
0.93,-0.21,-0.30,-0.14,1.72,10.23
-0.11,-0.08,-0.46,-0.58,1.62,10.50
-0.50,-0.40,-0.45,-0.18,1.31,10.94
-0.23,-0.44,-0.43,0.00,1.11,11.27
-0.41,-0.36,-0.43,0.04,1.47,10.70
-1.02,-0.37,-0.48,0.27,1.54,10.53
-1.83,-0.00,-0.48,0.37,1.58,10.26
-2.55,0.61,-0.41,0.51,1.46,10.17
-2.79,0.89,-0.44,0.01,1.06,9.44
-2.49,0.82,-0.43,0.40,0.83,9.39
-1.61,1.21,-0.39,0.33,0.81,9.08
-1.00,1.46,-0.36,0.30,0.96,8.67
-1.14,1.66,-0.52,0.40,1.48,8.85
-1.72,1.85,-0.50,0.41,1.42,9.10
-1.89,1.78,-0.48,0.27,1.14,9.25
-1.58,1.40,-0.48,-0.12,0.93,9.30
-0.51,0.05,-0.44,-0.17,1.15,9.94
-0.72,-0.29,-0.57,-0.13,1.33,10.18
-0.99,-0.69,-0.55,-0.22,1.36,9.84
-1.03,-1.12,-0.54,-0.31,1.13,9.65
-0.32,-1.04,-0.56,0.33,1.00,9.88
0.06,-0.48,-0.48,-0.04,1.30,10.04
-0.22,-0.42,-0.50,-0.50,1.52,9.91
-0.74,-0.81,-0.60,-0.26,1.52,10.23
-1.37,-0.17,-0.70,-0.13,0.83,10.03
-0.70,0.05,-0.65,-0.15,0.70,9.61
0.55,0.04,-0.67,0.03,0.81,9.50
0.98,0.14,-0.68,0.36,1.22,9.57
0.40,1.38,-0.49,0.34,1.57,9.39
-0.38,1.44,-0.53,0.07,1.32,9.12
-0.03,1.70,-0.55,0.17,0.89,9.05
0.79,2.07,-0.54,0.36,0.64,9.20
2.15,2.16,-0.48,0.17,1.35,9.61
1.60,1.88,-0.48,0.38,1.60,10.01
0.69,1.91,-0.42,0.51,1.39,10.11
0.47,2.06,-0.34,0.15,1.00,9.81
2.31,1.03,-0.47,-0.06,1.10,9.75
2.36,0.56,-0.42,0.22,1.50,10.10
1.51,0.38,-0.39,-0.04,1.65,9.80
1.01,-0.06,-0.42,-0.35,1.41,9.21
2.23,-0.81,-0.45,0.06,0.85,8.87
3.07,-0.45,-0.39,-0.02,1.13,8.83
2.95,-0.12,-0.41,0.07,1.43,9.26
2.22,-0.06,-0.52,-0.13,1.60,9.67
1.34,-0.15,-0.53,-0.24,1.18,10.59
1.88,-0.36,-0.59,-0.63,1.08,10.64
2.16,-1.10,-0.60,-0.78,1.07,10.53
2.06,-1.63,-0.59,-0.01,1.12,10.68
1.89,-0.25,-0.41,0.31,1.40,10.17
1.60,0.50,-0.41,0.19,1.65,10.08
1.12,1.00,-0.45,0.06,1.80,10.37
-1.07,1.34,-0.44,0.04,1.49,11.18
-1.60,1.01,-0.46,-0.27,0.99,11.04
-1.06,0.20,-0.44,-0.35,0.64,10.53
0.08,-0.32,-0.41,0.07,0.68,10.47
0.78,-0.19,-0.41,0.19,1.15,10.25
-0.93,-0.07,-0.48,0.19,1.68,10.06
-1.82,0.07,-0.55,0.48,1.34,10.15
-1.61,0.49,-0.48,-0.03,0.92,9.92
-0.70,0.47,-0.47,-0.42,0.69,9.79
0.74,-1.18,-0.55,-0.42,1.26,9.96
0.55,-1.46,-0.57,-0.02,1.40,9.94
0.18,-1.39,-0.55,0.24,1.32,9.75
0.32,-1.12,-0.58,0.04,1.18,9.39
0.89,-0.47,-0.65,0.06,1.21,9.73
0.70,-0.02,-0.68,-0.00,1.42,10.31
0.04,-0.17,-0.71,-0.41,1.53,10.33
-0.28,-0.92,-0.69,-0.47,1.30,10.34
0.34,-1.69,-0.66,0.10,1.07,9.92
0.53,-1.36,-0.54,0.16,1.30,9.70
-0.19,-0.93,-0.61,0.19,1.56,9.51
-0.77,-0.48,-0.55,0.23,1.76,9.40
-2.01,0.52,-0.54,0.19,1.40,9.54
-1.96,0.48,-0.44,0.02,1.07,9.25
-1.53,0.30,-0.34,0.08,0.78,9.29
-1.05,0.44,-0.39,0.31,0.80,9.42
-0.48,0.48,-0.24,0.18,1.32,9.28
-0.74,0.48,-0.26,0.08,1.52,9.40
-1.32,0.55,-0.28,-0.08,1.48,9.27
-1.69,0.66,-0.32,0.24,1.11,9.40
-0.37,0.72,-0.23,-0.06,0.77,9.12
0.65,0.62,-0.15,0.09,1.17,9.57
0.57,0.46,-0.22,0.09,1.56,10.05
-0.31,0.27,-0.31,-0.20,1.82,10.10
-2.00,-0.08,-0.30,-0.11,1.13,10.76
-1.45,-0.27,-0.37,-0.29,0.91,10.59
-0.63,-0.64,-0.16,-0.18,0.90,10.80
-0.55,-0.94,-0.23,-0.08,1.21,10.91
-1.88,-0.82,-0.17,0.02,1.51,10.50
-2.61,-0.78,-0.25,-0.19,1.32,9.85
-2.35,-1.02,-0.18,-0.28,1.01,9.31
-1.75,-1.07,-0.18,0.22,0.81,9.31
-1.19,-0.02,-0.17,-0.26,1.29,8.86
-1.38,-0.25,-0.14,-0.17,1.28,8.90
-1.48,-0.49,-0.21,0.12,1.13,9.31
-1.30,-0.41,-0.22,-0.10,0.99,9.07
-0.07,-0.52,-0.24,-0.16,0.80,9.21
0.59,-0.90,-0.27,-0.34,0.93,9.07
0.97,-1.13,-0.24,-0.06,1.13,9.21
1.47,-0.85,-0.22,0.03,1.32,9.26
0.92,-0.31,-0.30,0.23,1.32,9.27
0.85,0.17,-0.34,0.09,1.12,9.30
0.90,0.48,-0.36,0.05,0.94,9.55
1.67,0.67,-0.40,-0.13,1.11,9.97
1.33,-0.57,-0.44,-0.51,1.71,10.50
0.57,-1.41,-0.43,-0.20,1.65,10.47
-0.20,-1.69,-0.41,0.18,1.15,10.34
-0.11,-1.34,-0.44,0.10,0.79,9.83
0.57,-0.89,-0.33,0.08,1.46,9.99
-0.29,-1.02,-0.34,-0.21,1.86,9.90
-1.48,-1.17,-0.26,-0.11,1.68,9.90
-2.24,-1.06,-0.30,0.25,1.13,9.89
-0.70,-0.48,-0.08,0.09,0.62,9.41
-0.07,-0.37,-0.07,-0.10,1.16,9.56
-0.53,-0.48,-0.07,-0.12,1.68,9.78
-1.50,-0.64,-0.15,-0.09,1.71,10.00
-2.11,-0.96,-0.05,-0.15,0.77,9.88
-1.10,-1.23,-0.01,-0.09,0.65,9.82
-0.00,-1.23,0.08,0.05,0.95,10.10
-0.01,-1.16,0.14,0.04,1.46,10.36
-1.75,-0.97,0.05,-0.04,1.39,10.26
-1.48,-0.77,0.10,0.13,0.95,10.05
-0.68,-0.42,0.02,-0.06,0.81,9.75
-0.11,-0.16,0.07,0.01,1.09,9.69
-1.04,0.42,0.13,0.17,1.43,9.98
-1.20,0.60,0.23,0.05,1.25,9.74
-0.74,0.64,0.27,0.25,1.06,9.82
-0.57,0.69,0.27,0.17,1.03,9.43
-0.02,1.05,0.35,0.12,0.85,8.95
0.54,1.19,0.31,0.33,0.84,8.82
1.01,1.46,0.38,0.56,0.94,8.81
1.44,2.07,0.50,0.40,1.11,8.83
1.05,2.56,0.44,0.21,1.17,9.22
1.20,2.32,0.41,-0.04,0.89,9.34
2.15,2.01,0.40,-0.31,0.83,9.41
3.17,1.44,0.47,-0.25,1.12,9.59
2.34,0.78,0.43,-0.13,1.68,9.98
1.42,0.59,0.46,-0.21,1.52,9.68
1.15,0.29,0.39,-0.28,1.18,9.86
1.39,0.19,0.30,-0.20,1.10,10.13
0.69,0.16,0.32,-0.57,1.52,11.09
-0.17,-0.64,0.30,-0.87,1.38,10.95
-0.23,-1.31,0.31,-0.35,1.01,11.04
-0.01,-1.34,0.31,-0.09,0.75,10.54
0.59,-0.53,0.35,-0.11,1.18,9.87
0.06,-0.52,0.25,-0.11,1.42,9.76
-0.48,-0.29,0.26,-0.07,1.48,9.76
-0.70,0.09,0.41,-0.02,1.25,9.79
-0.46,-0.18,0.38,-0.28,0.78,9.72
0.16,-0.19,0.37,-0.07,0.66,9.92
0.67,-0.27,0.37,-0.15,0.77,9.84
1.08,-0.30,0.49,-0.21,1.09,10.02
0.22,-0.25,0.44,0.10,1.34,10.45
-0.13,0.10,0.53,0.05,0.95,10.53
0.05,0.44,0.48,-0.08,0.55,10.31
1.19,0.53,0.43,-0.19,0.63,10.18
1.96,-0.08,0.37,-0.31,1.55,9.88
1.37,-0.39,0.30,-0.24,1.65,9.54
0.57,-0.35,0.30,0.03,1.28,9.35
0.57,-0.10,0.23,0.07,0.96,9.03
1.52,0.09,0.30,0.04,1.18,9.71
0.99,-0.00,0.20,-0.22,1.61,10.05
0.02,-0.33,0.31,-0.40,1.66,10.25
-1.00,-0.82,0.27,-0.37,1.20,10.31
-0.52,-1.03,0.26,0.00,0.66,9.95
-0.30,-0.72,0.27,0.18,1.04,10.03
-0.47,-0.62,0.27,-0.28,1.62,9.65
-1.56,-0.85,0.32,-0.17,1.76,9.89
-3.68,-0.50,0.18,-0.37,1.45,10.14
-4.53,-0.91,0.21,-0.35,0.91,10.53
-4.66,-1.58,0.09,-0.69,0.56,10.42
-3.86,-2.37,0.14,-0.71,0.51,10.30
-2.97,-2.94,0.09,-0.30,0.87,10.20
-3.62,-2.81,0.12,-0.12,1.10,10.35
-4.71,-2.50,0.01,-0.18,0.85,10.31
-5.21,-2.36,-0.05,-0.36,0.42,9.96
-3.47,-2.23,-0.06,-0.30,0.22,9.81
-2.42,-2.36,0.04,-0.38,0.70,9.48
-2.38,-2.44,0.10,-0.02,0.86,9.57
-2.79,-2.21,-0.13,0.09,0.91,8.92
-2.30,-1.04,0.17,0.42,0.61,8.59
-1.77,-0.49,0.05,0.18,0.58,8.24
-1.24,-0.14,0.18,0.38,0.62,8.56
-0.97,0.16,0.18,0.25,0.55,8.64
0.12,0.06,0.27,0.21,0.41,8.90
0.57,-0.02,0.16,0.09,0.34,8.90
1.38,-0.21,0.21,-0.05,0.45,8.68
2.00,-0.60,0.34,0.18,0.43,8.76
3.33,-0.35,0.26,0.13,0.87,8.66
3.27,0.03,0.31,0.18,1.09,8.89
2.80,0.31,0.22,0.30,1.28,9.35
2.03,0.50,0.25,0.19,1.19,9.83
2.11,0.07,0.20,-0.30,0.45,10.09
2.61,-0.37,0.25,-0.08,0.47,10.60
2.75,-0.76,0.14,-0.33,0.81,10.52
2.21,-1.12,0.21,-0.07,1.02,10.74
0.89,-0.59,0.12,0.00,0.72,10.40
0.83,-0.02,0.25,0.29,0.63,10.63
0.57,0.53,0.22,0.36,0.56,10.97
0.50,0.86,0.20,-0.09,0.73,10.79
-0.19,0.65,0.24,0.08,0.51,10.77
0.26,0.54,0.23,-0.17,0.50,10.12
0.44,0.60,0.33,0.33,0.42,10.21
0.37,1.10,0.18,0.40,0.51,10.14
0.03,1.21,0.25,0.24,0.53,10.17
0.09,1.26,0.17,0.28,0.46,10.37
0.59,1.21,0.21,-0.46,0.49,9.91
1.12,0.78,0.17,-0.47,0.62,9.96
0.26,-0.77,0.00,-0.32,0.87,9.94
-0.01,-0.99,0.04,0.01,0.51,9.77
0.64,-1.03,0.04,0.01,0.27,9.54
1.44,-1.29,0.02,-0.48,0.49,9.05
1.45,-1.28,0.01,0.27,1.13,9.87
0.53,-0.66,-0.04,0.07,1.13,9.87
-0.41,-0.40,-0.07,-0.20,0.85,9.66
-0.44,-0.55,-0.04,-0.12,0.49,9.85
0.59,-0.10,0.09,0.31,0.54,10.26
0.51,0.46,0.14,0.33,1.05,10.51
-0.61,0.77,0.20,-0.03,1.39,10.42
-2.21,0.94,0.18,-0.04,1.27,10.55
-3.86,1.59,0.18,0.38,0.15,10.55
-3.42,1.73,0.27,0.05,-0.04,10.08
-2.87,1.60,0.30,0.06,0.01,9.98
-2.53,1.69,0.34,0.46,0.08,10.12
-3.27,2.75,0.38,0.13,0.22,9.95
-3.74,2.68,0.35,-0.21,0.00,9.76
-3.71,1.93,0.22,-0.30,-0.16,9.46
-2.97,1.23,0.27,0.04,-0.43,9.41
-1.15,1.12,0.36,-0.08,-0.24,8.99
-0.96,0.80,0.38,-0.17,0.00,9.09
-1.12,0.56,0.23,-0.19,0.17,9.18
-0.97,0.49,0.22,-0.25,0.30,9.25
-0.94,-0.15,0.29,-0.33,0.05,9.33
-0.62,-0.62,0.41,-0.37,-0.17,9.20
-0.01,-0.66,0.40,-0.05,-0.31,9.36
0.43,-0.55,0.38,-0.17,-0.27,9.12
0.63,-0.45,0.30,-0.29,-0.23,9.13
0.96,-0.51,0.32,-0.24,-0.24,9.15
1.36,-0.50,0.37,-0.31,-0.29,9.15
1.68,-0.51,0.37,-0.20,-0.32,8.99
2.53,0.07,0.47,0.20,-0.18,9.36
2.39,0.99,0.52,0.19,0.20,9.79
1.95,1.52,0.66,-0.20,0.38,10.12
1.33,1.42,0.60,-0.23,0.29,10.75
0.28,0.88,0.88,-0.30,-0.04,11.34
0.02,0.49,0.87,-0.21,-0.11,11.02
-0.08,0.15,1.06,-0.04,-0.17,10.74
-0.45,0.40,1.10,0.11,-0.18,10.51
-1.99,1.79,1.30,0.08,0.06,10.49
-2.90,1.69,1.28,-0.37,-0.15,10.33
-3.23,1.21,1.40,-0.28,-0.42,10.37
-2.83,0.55,1.55,-0.22,-0.65,10.01
-1.86,0.10,1.78,-0.15,-0.38,9.49
-2.22,0.01,1.73,-0.21,-0.30,8.96
-2.13,0.20,1.86,-0.17,-0.32,8.95
-1.99,0.45,1.90,-0.23,-0.47,8.95
-1.19,0.47,2.09,-0.17,-0.40,9.56
-1.09,0.53,2.17,-0.14,-0.43,10.12
-1.03,0.63,2.26,-0.48,-0.28,10.19
-0.94,0.29,2.46,-1.10,-0.39,9.79
-0.42,-0.33,2.33,-0.08,-0.26,10.16
-0.67,-0.08,2.44,-0.63,-0.24,9.68
-0.98,-0.26,2.41,-0.64,-0.31,9.53
-0.85,-0.53,2.57,-0.24,-0.54,9.84
-0.36,-0.19,2.74,-0.55,-0.71,9.22
0.00,0.10,2.91,-0.45,-0.82,9.31
0.13,0.33,2.72,-0.37,-0.85,9.12
0.68,0.64,2.90,-0.31,-0.86,8.97
2.20,1.27,3.07,-0.32,-0.40,8.85
2.17,1.37,3.27,-0.37,-0.08,9.06
1.52,1.75,3.19,-0.25,-0.04,9.23
1.20,1.96,3.41,-0.39,-0.16,9.24
1.80,1.71,3.52,-0.42,-0.60,10.10
2.06,1.73,3.77,-0.70,-0.27,10.62
1.84,1.26,3.85,-1.08,0.05,10.82
0.97,0.26,3.90,-0.97,0.23,11.15
-0.78,-0.58,4.21,-0.46,-0.39,10.90
-0.89,-0.23,4.54,-0.68,-0.83,10.73
-0.48,-0.20,4.55,-0.86,-1.05,10.46
0.02,-0.17,4.67,-0.75,-0.78,10.58
-0.44,0.00,4.89,-1.01,-0.17,10.20
-1.07,-0.07,5.07,-0.77,-0.13,10.25
-1.41,-0.18,5.25,-0.66,-0.53,9.72
-1.16,0.15,5.45,-0.46,-0.85,9.56
0.27,1.21,5.91,-0.83,-0.47,9.18
0.28,1.38,6.02,-0.71,0.11,9.69
-0.73,1.53,6.29,-1.07,0.28,9.84
-2.24,1.34,6.25,-1.21,-0.25,9.73
-1.24,0.81,6.69,-1.11,-1.31,9.49
0.26,0.49,6.82,-0.93,-1.14,9.32
1.15,0.63,7.21,-0.69,-0.61,9.83
0.82,1.19,7.32,-1.08,-0.17,9.83
-1.46,1.43,7.40,-1.48,-0.58,9.91
-1.01,0.89,7.36,-1.52,-1.11,9.56
0.58,0.67,7.51,-0.97,-0.86,9.75
1.10,0.98,7.79,-0.99,-0.28,9.84
-0.82,1.75,7.87,-1.28,0.18,9.97
-1.90,1.66,7.91,-1.62,-0.28,10.12
-2.14,1.77,7.74,-1.50,-0.72,10.42
-1.71,1.67,8.04,-1.58,-0.96,10.53
-0.89,0.82,8.09,-1.31,-0.35,10.18
-1.94,0.73,8.37,-1.38,-0.22,9.92
-3.24,0.98,8.32,-1.49,-0.68,9.50
-3.15,1.43,8.46,-1.15,-1.15,9.61
-1.01,1.70,8.61,-1.76,-0.95,9.14
-0.75,1.50,8.82,-1.48,-0.32,9.57
-1.45,1.41,8.90,-1.77,-0.13,9.64
-2.47,1.36,8.76,-1.67,-0.29,9.78
-2.07,1.06,9.21,-1.76,-1.16,9.59
-0.67,1.24,9.33,-1.43,-0.89,9.71
-0.62,1.54,9.57,-1.48,-0.46,9.68
-1.19,2.00,9.44,-1.88,-0.37,9.26
-2.03,2.22,9.57,-1.81,-1.35,9.61
-1.00,2.05,9.56,-1.71,-1.36,9.16
0.24,1.87,9.97,-1.40,-1.15,9.18
1.00,2.21,10.11,-1.59,-0.84,9.01
-0.24,2.67,10.29,-1.90,-0.65,9.45
-0.32,2.71,10.14,-2.24,-1.04,9.20
0.66,2.01,10.22,-2.04,-1.15,9.12
1.68,1.32,10.51,-1.92,-0.85,9.37
1.10,1.03,10.72,-1.87,-0.34,9.64
0.56,0.74,10.77,-2.36,-0.79,9.66
0.63,0.23,10.62,-2.46,-1.34,9.62
1.50,-0.20,10.66,-2.23,-1.37,9.98
2.72,-0.77,10.92,-2.38,-0.60,9.74
2.02,-1.01,10.97,-2.05,-0.40,9.77
1.29,-0.85,10.98,-2.03,-0.56,9.43
1.07,-0.48,10.92,-2.35,-1.02,9.35
2.75,-0.25,10.92,-2.10,-1.15,10.05
3.26,0.10,10.95,-2.04,-0.41,10.45
2.33,0.61,10.90,-2.32,0.11,10.26
0.76,0.63,10.74,-2.29,0.02,10.32
-0.45,0.79,10.58,-2.27,-0.97,10.55
-0.20,0.81,10.58,-2.05,-1.12,10.74
0.25,1.03,10.59,-2.10,-0.86,10.68
-0.01,1.05,10.47,-2.14,-0.32,10.51
-2.51,0.71,10.24,-2.60,-0.43,10.39
-3.10,0.16,10.08,-2.15,-1.00,10.65
-2.80,-0.05,10.20,-2.03,-1.35,10.57
-1.87,-0.26,10.16,-2.15,-1.11,9.94
-2.31,-0.69,10.01,-2.35,-0.41,9.84
-2.89,-0.98,9.84,-2.38,-0.55,9.92
-2.95,-1.18,9.90,-2.46,-0.97,10.23
-2.43,-1.62,9.78,-2.58,-1.21,9.83
-1.41,-2.34,9.86,-1.89,-0.79,9.89
-1.94,-1.98,9.68,-2.01,-0.67,9.48
-2.08,-1.80,9.76,-2.50,-0.93,9.25
-1.60,-1.95,9.58,-2.73,-1.31,9.34
0.07,-2.44,9.58,-1.89,-0.88,9.55
-0.07,-2.14,9.53,-1.75,-0.78,9.19
-0.19,-1.73,9.60,-1.73,-0.85,8.86
0.01,-1.18,9.58,-1.93,-0.99,8.88
1.28,-0.48,9.54,-1.87,-0.77,9.20
1.28,-0.39,9.51,-1.80,-0.53,9.38
0.72,-0.25,9.50,-1.58,-0.43,9.34
0.33,0.18,9.60,-1.24,-0.65,9.57
0.47,0.71,9.57,-2.17,-1.01,9.45
0.85,0.07,9.48,-2.05,-0.91,9.66
0.67,-0.48,9.38,-1.89,-0.65,9.76
0.26,-0.66,9.38,-1.79,-0.48,9.43
-0.50,-0.74,9.46,-1.60,-0.98,9.58
-0.00,-0.52,9.46,-1.70,-1.31,9.60
0.97,-0.28,9.47,-1.69,-1.14,9.86
1.48,-0.23,9.42,-2.11,-0.64,9.63
0.18,-0.70,9.19,-1.69,-0.29,10.28
-0.58,-0.59,9.10,-1.59,-0.72,10.28
-0.65,-0.56,9.16,-1.94,-1.18,9.83
0.26,-0.70,9.21,-2.05,-1.33,9.66
0.92,-0.10,9.02,-1.71,-0.30,10.52
-0.54,-0.15,8.97,-2.23,-0.17,10.38
-1.83,-0.62,8.78,-2.27,-0.61,10.47
-1.79,-1.19,8.68,-1.85,-1.22,10.44
-0.24,-1.26,8.91,-1.59,-0.90,10.24
-0.13,-0.73,8.77,-1.73,-0.54,9.88
-0.69,-0.82,8.74,-1.89,-0.59,9.67
-1.14,-1.06,8.60,-1.98,-0.80,9.77
-0.22,-1.61,8.59,-1.91,-1.16,9.49
0.27,-1.92,8.48,-1.73,-0.87,9.36
0.48,-1.81,8.57,-1.60,-0.51,9.39
-0.05,-1.71,8.58,-1.77,-0.47,9.44
-0.47,-2.08,8.34,-1.85,-1.23,9.48
0.43,-2.02,8.27,-1.61,-1.28,9.86
0.83,-1.67,8.17,-1.80,-0.99,10.05
1.05,-1.50,8.09,-1.96,-0.74,9.77
0.55,-1.69,7.92,-1.50,-0.37,9.69
0.13,-1.06,7.88,-1.25,-0.66,9.82
-0.23,-0.74,7.83,-1.51,-1.14,9.81
0.48,-0.64,7.68,-1.84,-1.34,9.31
1.83,-0.35,7.70,-1.29,-0.27,9.67
0.67,0.01,7.54,-1.61,0.05,9.76
-0.94,-0.17,7.56,-1.37,-0.36,10.29
-1.68,-0.52,7.45,-1.42,-1.15,10.44
0.16,-0.88,7.53,-1.34,-1.29,10.18
0.56,-0.95,7.36,-1.60,-0.69,9.91
0.00,-1.35,7.20,-1.72,-0.11,9.88
-1.49,-1.73,7.11,-1.48,-0.17,10.38
-2.66,-2.11,7.06,-1.39,-1.52,9.56
-0.93,-1.90,7.13,-1.42,-1.62,9.14
0.96,-1.83,6.92,-1.51,-1.02,8.93
1.27,-1.87,6.74,-1.70,-0.13,9.22
-2.37,-2.86,6.21,-1.82,-0.49,9.63
-2.62,-3.44,6.16,-1.46,-1.37,9.67
-1.36,-3.55,6.17,-1.33,-1.68,9.41
0.39,-3.09,6.22,-1.22,-1.34,9.35
0.59,-1.85,5.88,-1.36,-0.27,10.08
-0.73,-1.90,5.60,-1.68,-0.46,10.17
-1.41,-2.25,5.35,-1.64,-1.07,9.90
-0.44,-2.52,5.32,-1.07,-1.51,9.63
1.65,-1.25,5.24,-0.62,-0.76,9.63
1.63,-0.23,5.09,-0.86,-0.28,9.72
0.73,-0.02,4.79,-1.08,-0.22,10.05
0.02,-0.28,4.45,-1.52,-0.48,10.03
-1.15,-1.81,3.93,-0.95,-0.98,10.37
-1.05,-2.25,3.76,-1.03,-1.00,9.88
-0.75,-2.87,3.65,-1.35,-0.83,9.41
-0.36,-3.51,3.46,-1.29,-0.57,9.52
-2.13,-5.17,2.91,-1.38,-0.41,10.34
-3.17,-6.14,2.64,-1.60,-0.94,10.26
-2.90,-7.26,2.33,-1.58,-1.49,9.95
-1.71,-7.95,2.15,-1.06,-1.39,9.71
-0.40,-7.56,1.74,-1.39,-0.58,8.72
-0.95,-8.19,1.54,-1.19,-0.82,8.48
-1.15,-8.62,1.24,-0.54,-0.93,8.78
-1.56,-8.10,1.12,-0.28,-0.90,9.17
-0.26,-4.66,0.70,-0.22,-1.15,9.52
0.69,-3.28,0.39,-0.31,-1.05,9.68
0.84,-2.36,0.11,-0.13,-0.70,10.14
-0.15,-1.73,-0.02,0.02,-0.64,10.58
-1.31,-0.90,-0.28,0.55,-0.78,10.81
-1.28,-0.35,-0.41,0.34,-0.75,10.33
-1.33,0.15,-0.62,0.16,-0.56,9.99
-1.67,0.16,-0.78,0.02,-0.48,9.66
-2.16,-0.68,-0.98,0.77,-0.91,9.39
-1.56,-1.02,-0.97,0.43,-0.95,8.54
-0.82,-1.51,-1.00,0.31,-0.89,8.32
-0.86,-1.85,-1.10,0.83,-0.65,8.75
-1.51,-1.55,-1.22,0.07,-0.26,9.18
-1.69,-2.34,-1.30,-0.19,-0.73,9.35
-0.57,-3.78,-1.39,-0.37,-1.10,9.31
0.31,-5.16,-1.34,-0.20,-1.06,9.39
1.27,-5.59,-1.43,0.34,-0.65,9.17
1.36,-5.14,-1.36,0.50,-0.43,9.52
0.80,-4.26,-1.46,0.58,-0.34,9.92
0.23,-3.23,-1.43,0.43,-0.47,10.30
0.82,-2.25,-1.43,0.42,-0.77,11.09
1.15,-2.33,-1.38,0.18,-0.46,10.92
0.88,-2.51,-1.31,0.18,-0.26,10.28
0.36,-2.16,-1.37,0.78,-0.22,10.02
0.32,-0.64,-1.23,0.87,-0.50,8.55
0.48,0.05,-1.28,1.22,-0.60,8.65
1.02,0.88,-1.26,1.46,-0.41,8.84
0.88,1.65,-1.19,1.08,-0.19,9.19
0.35,0.81,-1.17,0.17,-0.54,9.32
1.09,-0.27,-1.23,0.32,-0.78,9.58
1.81,-1.08,-1.16,0.53,-0.66,9.48
2.20,-1.57,-1.08,0.50,-0.42,9.14
2.05,-2.06,-1.06,0.71,-0.08,8.80
1.74,-1.49,-1.14,0.89,-0.06,9.10
1.39,-0.42,-1.11,0.83,-0.10,9.63
1.18,0.21,-1.12,0.38,-0.18,10.09
1.93,-0.83,-1.14,0.04,-0.15,11.10
1.95,-1.22,-1.05,0.39,-0.12,11.37
1.36,-1.02,-1.05,0.40,0.14,11.00
0.48,-0.70,-1.05,0.37,0.37,10.65
-1.77,0.11,-1.11,0.82,-0.04,10.84
-1.99,0.74,-0.98,0.69,-0.28,11.08
-1.96,0.85,-1.02,0.07,-0.44,10.66
-1.82,-0.00,-1.01,-0.22,-0.47,10.22
-1.66,-1.10,-1.16,0.73,-0.66,9.80
-0.92,-0.75,-1.05,0.57,-0.53,9.23
0.04,-0.32,-1.02,0.45,-0.14,9.04
-0.27,-0.28,-1.01,0.54,0.33,9.17
-1.85,0.23,-1.08,0.54,0.04,9.76
-2.07,0.14,-1.07,0.26,-0.53,9.63
-0.68,-0.14,-1.06,0.22,-0.81,9.76
0.63,-0.48,-0.99,0.30,-0.60,9.98
0.52,-0.92,-1.07,0.09,0.07,9.73
0.13,-0.96,-1.17,0.21,-0.05,9.65
0.15,-0.62,-1.24,0.46,-0.26,9.62
0.29,-0.15,-1.18,0.55,-0.35,9.65
0.64,0.06,-1.17,0.24,-0.09,9.67
0.51,0.03,-1.19,0.17,0.20,9.72
0.14,-0.15,-1.20,0.25,0.34,9.66
-0.39,-0.37,-1.15,0.28,0.25,9.55
-0.75,-0.32,-1.15,0.46,-0.32,9.18
-0.25,-0.20,-1.13,0.45,-0.46,9.06
0.25,-0.06,-1.10,0.57,-0.38,9.35
0.38,-0.03,-1.07,0.32,-0.12,9.36
-0.03,-0.65,-1.14,0.23,-0.32,9.24
0.22,-0.55,-1.24,0.66,-0.55,9.32
0.58,-0.02,-1.18,0.71,-0.62,9.51
0.86,0.18,-1.22,0.26,-0.37,9.39
1.23,-0.51,-1.17,0.39,0.25,10.10
0.01,-0.27,-1.39,0.52,0.26,10.12
-0.48,0.11,-1.45,0.23,-0.05,9.78
-0.08,0.01,-1.47,0.11,-0.53,9.50
1.59,0.25,-1.64,0.55,-0.00,10.07
1.27,0.85,-1.66,0.55,0.32,10.49
-0.33,0.93,-1.83,0.62,0.36,11.10
-1.65,0.57,-1.94,-0.02,-0.00,10.80
-0.24,-0.68,-2.07,0.40,-0.79,10.54
0.77,-0.87,-2.13,0.41,-0.33,10.26
0.33,-1.26,-2.22,0.45,0.23,9.85
-0.88,-1.55,-2.20,0.58,0.23,9.66
-0.98,-0.96,-2.47,0.62,-0.60,8.82
0.35,-0.69,-2.46,0.62,-0.55,9.13
1.06,-0.67,-2.56,0.52,-0.05,9.71
0.43,-1.09,-2.62,0.26,0.33,10.07
-0.74,-2.07,-2.79,0.22,-0.25,10.26
-0.14,-2.25,-2.91,0.30,-0.57,9.99
0.48,-2.27,-2.90,0.58,-0.46,10.13
0.73,-2.13,-2.96,0.49,-0.14,10.04
-0.62,-2.00,-3.16,0.52,0.18,10.08
-1.26,-1.71,-3.46,0.47,-0.30,9.56
-0.48,-1.60,-3.55,0.80,-0.57,9.40
0.75,-1.43,-3.33,0.59,-0.64,9.28
1.17,-0.80,-3.86,1.12,0.28,9.58
0.45,-0.12,-3.79,0.91,0.39,9.58
-0.60,0.04,-4.17,0.68,0.18,9.29
-0.66,-0.09,-4.13,0.90,-0.32,9.57
1.17,-0.10,-4.43,1.15,-0.54,9.87
1.52,0.15,-4.19,1.11,-0.01,10.50
0.62,-0.22,-4.50,0.48,0.19,10.09
-0.24,-1.00,-4.73,0.70,0.17,10.10
-0.06,-1.28,-4.96,1.05,-0.70,9.60
0.68,-1.08,-5.00,1.38,-0.48,9.86
1.13,-0.89,-4.93,0.91,-0.17,9.84
0.75,-1.03,-5.31,0.82,0.26,9.82
-0.61,-1.48,-5.30,0.77,0.00,10.16
-0.84,-1.70,-5.71,1.00,-0.28,10.01
-0.23,-2.14,-5.62,0.93,-0.60,9.77
0.83,-2.50,-5.75,0.58,-0.79,9.32
1.53,-2.24,-5.97,1.22,0.37,9.76
0.30,-2.01,-6.26,1.03,0.35,9.52
-0.71,-1.79,-6.44,1.28,-0.02,9.56
-0.40,-1.29,-6.34,1.27,-0.65,9.61
1.24,-0.53,-6.78,1.27,-0.32,10.11
1.55,-0.72,-6.69,0.91,0.16,10.10
0.60,-1.30,-7.09,0.97,0.37,10.04
-0.20,-1.65,-7.19,1.41,0.26,9.98
-0.02,-1.12,-7.37,1.80,-0.49,9.67
0.39,-0.65,-7.33,1.74,-0.13,10.04
0.14,-0.65,-7.40,1.10,0.05,9.99
-0.51,-1.08,-7.74,1.44,0.13,10.36
-0.96,-1.48,-7.83,1.21,-0.39,10.13
-0.59,-1.84,-7.99,1.52,-0.50,9.99
0.06,-1.95,-7.95,1.50,-0.49,9.76
0.19,-1.86,-8.18,1.65,-0.26,9.43
-0.55,-0.96,-8.35,1.54,0.28,9.50
-1.28,-1.07,-8.62,1.42,0.11,9.53
-1.52,-1.17,-8.79,1.70,-0.23,9.87
-1.03,-1.27,-8.71,1.55,-0.63,9.74
0.63,-1.37,-8.90,1.72,-0.18,9.95
0.26,-1.53,-8.97,1.40,0.21,9.78
-0.47,-1.38,-9.32,1.74,0.35,9.75
-1.37,-1.14,-9.36,2.14,0.08,9.86
-0.75,-0.09,-9.60,2.05,-0.64,9.53
-0.22,0.13,-9.47,2.05,-0.39,9.79
-0.03,0.12,-9.52,1.67,-0.01,9.78
-0.69,-0.10,-9.74,1.85,0.28,10.10
-2.03,-0.51,-9.94,1.77,-0.38,9.91
-1.28,-0.81,-10.12,1.98,-0.62,9.62
0.05,-0.92,-9.86,1.95,-0.56,9.62
0.18,-1.07,-10.04,1.99,-0.24,9.49
-0.68,-0.64,-10.17,2.02,0.28,9.66
-1.39,-0.80,-10.45,1.85,0.01,9.44
-1.51,-0.98,-10.47,1.96,-0.24,9.69
-1.17,-0.99,-10.43,2.04,-0.60,9.75
0.21,-0.82,-10.47,1.89,-0.26,9.62
0.14,-1.16,-10.57,1.60,-0.11,9.29
-0.38,-1.32,-10.90,2.14,0.05,9.52
-0.28,-0.87,-10.75,2.30,0.02,9.56
-0.60,-0.18,-11.06,2.21,-0.33,9.61
-0.08,-0.23,-10.95,2.01,-0.46,9.51
0.46,-0.16,-11.12,2.17,-0.34,9.72
0.73,0.12,-11.04,2.31,0.09,10.01
-0.39,0.05,-11.27,2.30,0.15,9.58
-1.04,0.12,-11.13,2.62,-0.02,9.63
-1.32,0.57,-11.16,2.49,-0.23,9.47
-1.11,1.24,-11.27,2.73,-0.32,9.71
-0.34,1.26,-11.37,1.88,-0.33,9.62
-0.22,0.57,-11.40,2.18,-0.11,10.10
-0.43,-0.22,-11.31,2.10,-0.09,10.34
-0.56,-0.78,-11.43,2.10,-0.04,10.26
-1.17,-2.02,-11.39,2.00,-0.24,9.64
-0.75,-2.02,-11.55,2.25,-0.33,9.59
-0.37,-1.80,-11.44,2.16,-0.42,9.47
0.05,-1.76,-11.61,1.98,-0.27,9.11
0.15,-1.96,-11.57,2.46,-0.11,9.66
-0.35,-1.32,-11.75,2.44,-0.29,9.48
0.05,-0.65,-11.67,2.22,-0.53,9.36
0.96,-0.40,-11.78,1.95,-0.63,9.22
1.89,-0.08,-11.97,2.20,-0.04,9.95
1.56,-0.09,-12.16,2.09,0.12,9.99
0.72,-0.45,-12.29,2.40,0.27,10.30
-0.03,-0.71,-12.13,2.41,-0.06,10.12
0.64,-0.13,-12.21,2.55,-0.37,9.78
1.07,-0.04,-12.20,2.29,-0.17,9.58
0.86,-0.12,-12.44,2.36,0.17,9.71
0.19,0.01,-12.34,2.59,0.15,9.92
-0.04,0.42,-12.50,2.73,-0.51,9.50
0.87,0.68,-12.35,2.45,-0.47,9.35
1.24,0.68,-12.53,2.43,-0.17,9.62
0.93,0.70,-12.57,2.44,0.21,10.12
-0.40,-0.15,-12.82,2.30,-0.15,9.95
0.14,-0.57,-12.69,2.24,-0.55,9.80
0.84,-0.73,-12.84,2.43,-0.64,9.74
1.49,-0.40,-12.95,2.70,-0.13,10.12
-0.07,-0.58,-13.08,2.07,0.43,10.29
-0.76,-0.92,-13.13,2.45,0.28,10.83
-1.16,-1.20,-13.15,2.51,-0.22,10.65
-1.10,-1.29,-13.12,2.48,-0.49,10.32
-0.13,-1.17,-13.20,2.33,-0.07,9.92
-0.46,-0.85,-13.21,2.67,0.29,10.13
-1.46,-0.60,-13.12,2.58,0.25,9.93
-2.34,-0.46,-13.24,2.60,0.13,9.68
-2.24,-0.35,-13.11,2.90,-0.58,9.37
-1.58,0.13,-13.12,2.69,-0.49,9.22
-1.11,0.40,-13.12,2.45,-0.27,9.11
-1.18,0.43,-13.35,2.59,-0.03,9.18
-1.65,0.64,-13.31,2.82,-0.06,9.36
-1.88,0.71,-13.36,2.82,-0.38,9.44
-1.35,0.70,-13.39,2.67,-0.52,9.42
-0.57,0.45,-13.44,2.44,-0.45,9.23
-0.40,0.63,-13.52,2.78,0.02,9.77
-1.05,0.77,-13.66,2.59,-0.04,9.69
-0.80,0.99,-13.64,3.00,-0.19,10.02
-0.64,1.03,-13.54,2.89,-0.38,10.00
-0.04,0.95,-13.74,2.31,0.06,10.00
-0.87,0.38,-13.81,2.50,0.12,10.35
-1.46,0.19,-14.04,2.83,0.10,10.43
-1.70,-0.06,-13.79,2.50,-0.25,9.85
-0.32,-0.46,-13.88,2.76,-0.36,9.31
-0.26,-0.33,-13.80,2.67,-0.13,9.12
-0.56,0.03,-14.01,2.75,0.09,9.15
-1.04,0.17,-13.96,2.74,0.18,9.22
-1.71,-0.26,-14.05,2.79,-0.45,9.29
-0.79,-0.20,-13.82,2.68,-0.62,9.27
-0.07,-0.12,-13.86,2.65,-0.59,9.35
0.31,-0.06,-13.99,2.51,-0.12,9.41
-0.26,-0.25,-14.05,2.87,0.08,9.53
-0.65,-0.06,-14.05,3.12,-0.15,9.48
-0.22,0.40,-13.93,2.86,-0.54,9.07
0.61,0.82,-13.94,2.85,-0.65,9.21
1.43,1.27,-13.98,2.56,0.07,10.05
1.13,1.17,-14.05,2.40,0.35,10.29
0.41,0.51,-14.03,2.41,0.13,10.47
-0.16,-0.14,-14.07,2.61,-0.17,10.58
0.46,0.04,-14.04,2.83,-0.57,10.19
1.15,-0.17,-13.95,2.65,-0.32,9.80
1.50,-0.19,-13.94,2.34,0.13,9.63
0.77,-0.39,-14.04,2.73,0.37,9.67
-0.97,0.15,-13.96,2.82,0.37,9.92
-2.19,0.04,-13.98,2.79,-0.11,9.76
-2.09,0.04,-13.94,2.78,-0.50,9.81
-1.09,0.23,-13.75,2.65,-0.48,9.76
-1.24,-0.15,-13.76,2.59,0.28,9.93
-1.86,-0.45,-13.70,2.52,0.34,9.58
-2.80,-0.75,-13.73,2.77,0.05,9.39
-2.94,-0.49,-13.77,2.88,-0.38,9.10
-1.21,0.32,-13.73,2.87,-0.63,9.02
-0.69,0.62,-13.72,2.62,-0.12,9.40
-1.02,0.60,-13.80,2.48,0.26,9.69
-1.61,0.21,-13.82,2.57,0.18,9.98
-1.67,0.23,-14.03,2.61,-0.69,9.87
-0.56,0.24,-14.00,2.61,-0.81,9.90
0.28,0.22,-14.01,2.76,-0.43,10.35
0.43,0.19,-14.07,2.72,0.22,10.41
-1.50,-0.54,-14.09,2.56,0.05,10.15
-1.40,-0.61,-14.15,2.67,-0.42,9.76
-0.90,-0.63,-14.03,2.93,-0.66,9.74
-0.42,-0.13,-14.10,3.10,-0.47,9.87
-0.19,0.55,-13.93,2.66,0.06,9.57
-0.60,0.22,-14.05,2.61,-0.07,9.43
-0.35,-0.18,-13.97,2.77,-0.30,9.12
0.12,-0.18,-13.85,3.06,-0.48,9.04
0.77,0.48,-13.90,2.57,-0.14,8.60
0.82,0.51,-13.88,2.79,0.17,8.97
0.15,0.60,-13.89,3.02,0.21,9.35
-0.34,0.82,-13.91,2.57,0.09,9.19
-0.04,0.08,-13.77,2.78,-0.59,9.26
0.87,0.00,-13.72,2.89,-0.56,9.37
1.58,0.60,-13.58,2.76,-0.24,9.58
1.30,0.98,-13.72,2.68,0.16,9.74
-0.05,0.93,-13.64,2.80,0.15,10.45
-0.76,1.06,-13.71,2.67,-0.35,10.40
-0.35,0.98,-13.68,2.70,-0.51,10.45
0.83,0.69,-13.55,2.56,-0.40,10.63
0.23,-0.17,-13.60,2.66,0.18,10.65
-0.50,-0.09,-13.59,2.84,0.07,10.60
-0.94,0.12,-13.59,2.85,-0.13,10.21
-0.82,0.26,-13.52,2.73,-0.41,10.02
0.19,0.31,-13.46,2.81,-0.25,9.91
0.21,0.28,-13.41,2.63,0.11,9.91
-0.71,0.07,-13.51,2.65,0.10,9.78
-1.37,0.02,-13.50,2.74,-0.20,9.85
-0.07,0.21,-13.51,2.51,-0.64,9.37
0.94,-0.02,-13.42,2.55,-0.29,9.49
0.84,-0.26,-13.39,2.71,0.11,9.53
0.33,-0.14,-13.41,2.70,0.29,9.43
-0.24,0.29,-13.43,2.76,-0.59,8.97
1.12,0.81,-13.37,2.82,-0.53,9.03
1.90,1.24,-13.18,2.81,-0.20,9.52
1.57,1.47,-13.33,2.81,0.29,10.19
-0.50,0.88,-13.07,2.49,0.10,10.67
-0.71,0.59,-13.23,2.79,-0.31,10.80
0.14,0.34,-12.99,2.22,-0.54,9.97
0.96,0.06,-12.94,2.46,-0.52,9.82
0.56,0.40,-12.79,2.84,0.50,9.81
-0.73,0.68,-12.73,2.99,0.46,9.87
-1.91,1.00,-12.58,2.88,0.12,9.76
-2.06,1.37,-12.55,2.53,-0.41,9.36
-0.61,1.50,-12.35,2.67,-0.53,9.87
-0.14,1.14,-12.28,2.20,-0.08,9.72
-0.45,0.41,-12.21,2.14,0.38,9.83
-1.64,-0.18,-12.26,2.30,0.39,9.72
-2.59,-0.36,-12.05,2.70,-0.55,9.26
-1.80,0.37,-11.98,2.85,-0.80,9.23
-0.60,0.95,-11.85,2.63,-0.44,9.23
-0.19,1.24,-11.70,2.28,0.15,9.46
-2.09,1.31,-11.70,2.44,0.24,10.00
-2.38,1.48,-11.66,2.44,-0.42,9.94
-1.82,1.59,-11.49,2.56,-0.84,9.87
-0.27,1.74,-11.37,2.47,-0.72,9.69
0.20,1.80,-11.07,2.25,0.49,10.25
-1.16,1.48,-11.11,2.18,0.60,10.24
-2.23,1.09,-10.89,2.45,0.09,10.34
-2.27,1.08,-10.79,2.37,-0.69,9.94
0.34,1.05,-10.20,2.27,-0.45,9.79
0.39,0.85,-10.18,2.25,0.08,9.83
-0.32,0.86,-9.96,2.48,0.43,9.94
-1.36,1.12,-9.64,2.41,0.03,9.55
-0.27,1.76,-9.25,2.45,-0.64,9.22
0.66,2.28,-8.99,2.37,-0.39,9.55
0.44,2.55,-8.85,2.13,0.22,9.98
-0.55,2.35,-8.49,1.80,0.48,10.14
-1.60,1.50,-8.11,1.94,-0.47,9.74
-0.38,1.47,-7.71,2.15,-0.78,9.18
1.22,1.92,-7.49,2.26,-0.51,8.89
1.47,2.68,-7.26,2.30,0.06,8.90
-0.73,4.62,-6.80,2.24,0.45,9.33
-1.46,4.93,-6.55,1.91,0.02,9.55
-0.97,4.83,-6.32,1.74,-0.37,9.94
-0.22,4.35,-5.97,1.61,-0.46,10.45
-0.01,2.91,-5.46,1.41,0.06,10.41
-0.45,2.10,-5.21,1.38,0.08,9.84
-0.69,2.01,-5.06,1.73,0.14,9.45
-0.88,2.89,-4.68,2.27,0.23,9.44
-2.93,5.54,-4.14,1.96,0.45,9.50
-4.13,6.20,-3.94,1.51,-0.00,9.50
-4.10,6.16,-3.86,1.27,-0.44,9.55
-3.16,5.86,-3.60,1.07,-0.61,9.84
-2.42,4.85,-3.31,0.97,0.00,10.10
-2.86,4.33,-3.04,0.94,-0.01,9.79
-3.11,4.01,-2.89,1.09,-0.35,9.27
-2.44,4.31,-2.64,1.25,-0.64,8.90
-1.30,5.73,-2.49,0.80,-0.39,8.99
-1.38,5.82,-2.57,0.58,-0.21,9.16
-1.00,5.18,-2.43,0.57,-0.17,9.50
-0.32,4.37,-2.07,0.60,-0.25,9.84
0.22,4.02,-1.44,0.44,-0.13,9.84
0.27,4.12,-1.32,0.57,-0.15,9.74
-0.21,4.55,-1.36,0.94,-0.15,10.12
-0.70,4.96,-1.20,0.28,-0.18,9.65
0.80,4.11,-0.86,0.62,-0.06,10.09
0.69,3.60,-0.57,0.52,0.37,10.08
-0.65,3.43,-0.31,0.53,0.46,9.73
-1.48,3.53,0.05,0.45,-0.06,9.18
-0.80,4.11,0.19,0.41,-0.76,8.34
0.95,4.72,0.42,0.45,-0.55,8.36
1.74,5.00,0.68,0.63,-0.04,8.47
1.60,5.26,0.97,0.56,0.35,8.49
-0.33,5.84,1.35,0.34,-0.25,8.80
0.25,6.00,1.71,0.51,-0.52,9.59
1.17,5.76,1.93,-0.20,-0.56,9.80
1.90,5.21,2.04,-0.45,-0.09,10.43
0.47,3.93,2.20,-0.89,0.39,10.98
-0.88,2.65,2.30,-0.78,-0.03,10.70
-0.86,1.69,2.64,-0.30,-0.32,10.88
-1.07,1.63,2.84,-0.06,-0.44,10.99
-0.80,2.27,3.48,-0.28,0.00,11.23
-1.65,1.88,3.45,-0.67,0.23,11.34
-3.05,1.63,3.35,-0.88,0.12,10.86
-3.53,1.60,3.52,-0.78,-0.45,10.08
-2.26,1.66,3.75,-0.44,-0.71,9.01
-1.19,1.98,3.99,0.20,-0.57,9.35
-0.73,2.73,4.24,0.01,-0.16,9.48
-0.66,3.36,4.37,-0.67,0.15,9.23
-1.74,2.49,4.30,-1.34,-0.26,9.12
-1.81,1.85,4.21,-1.27,-0.44,9.18
-1.31,1.08,4.45,-0.86,-0.50,9.34
-0.52,0.54,4.58,-0.73,-0.28,9.31
-0.95,0.42,5.00,-0.84,0.24,9.24
-2.01,0.72,4.89,-0.81,0.02,9.30
-2.33,1.14,4.89,-0.78,-0.34,9.45
-1.65,1.52,4.97,-1.19,-0.71,9.41
-0.14,1.64,5.25,-0.86,-0.03,10.10
-0.32,1.39,5.33,-1.23,0.14,9.46
-0.73,1.21,5.30,-0.73,0.02,9.16
-0.98,1.56,5.55,-0.50,-0.33,8.84
0.31,3.20,5.61,-0.29,-0.28,8.81
0.31,3.65,5.83,-0.57,-0.14,9.36
0.02,3.56,5.77,-1.00,-0.03,9.76
-0.32,3.00,6.05,-1.08,0.02,10.44
-0.80,1.49,6.18,-1.04,-0.48,10.71
-0.61,0.93,6.45,-1.09,-0.59,10.40
0.02,0.65,6.56,-1.35,-0.64,9.61
0.56,0.30,6.59,-0.59,-0.36,9.73
-0.11,1.04,6.98,-1.26,0.15,9.45
-1.00,0.80,7.02,-1.00,-0.09,9.76
-0.87,0.54,7.29,-1.43,-0.55,9.57
-0.10,0.20,7.42,-1.38,-0.93,9.19
2.32,0.86,7.92,-1.10,-0.23,9.14
2.23,1.18,7.90,-1.24,0.10,8.85
1.61,1.59,8.06,-1.09,0.31,9.15
0.50,2.12,8.19,-1.15,0.02,9.42
1.01,2.76,8.49,-1.31,-0.53,10.08
1.79,2.18,8.74,-1.85,-0.56,10.24
2.14,1.72,8.62,-1.35,-0.04,10.49
1.61,1.76,8.96,-1.00,0.39,10.66
-0.34,2.69,8.98,-1.16,0.07,10.04
-0.47,2.81,9.32,-1.27,-0.44,10.28
0.04,2.93,9.29,-1.33,-0.60,10.17
0.77,2.99,9.47,-1.19,-0.26,10.24
0.07,2.57,9.72,-1.51,0.08,9.62
-0.24,2.44,9.86,-1.47,-0.03,9.24
-0.22,2.48,10.13,-1.49,-0.49,9.00
0.29,2.78,10.07,-1.26,-0.72,9.07
0.67,3.35,10.57,-1.70,-0.14,10.02
0.53,2.92,10.49,-2.07,-0.21,10.04
0.78,1.84,10.67,-2.15,-0.20,10.13
0.66,0.86,10.92,-2.42,-0.10,9.96
-0.63,0.80,11.08,-1.56,-0.05,10.28
-0.61,1.14,11.23,-2.23,-0.48,9.74
-0.10,1.04,11.14,-2.02,-0.50,9.84
0.64,1.14,11.44,-1.88,-0.29,10.25
0.40,1.30,11.47,-1.91,-0.05,10.09
0.28,1.25,11.74,-1.90,-0.18,10.13
0.24,1.05,11.69,-2.46,-0.38,9.52
0.85,0.84,11.75,-2.18,-0.33,9.79
0.65,0.50,11.81,-2.42,-0.07,9.81
0.32,-0.02,11.90,-2.46,-0.17,9.66
0.39,-0.61,11.92,-2.21,-0.41,9.56
0.98,-0.52,11.90,-1.98,-0.42,9.56
1.38,-0.07,11.98,-2.26,-0.12,9.65
1.09,-0.03,11.92,-2.13,0.07,10.07
0.47,-0.05,12.00,-2.23,0.06,10.05
0.21,0.16,11.97,-2.25,-0.11,9.94
0.06,0.68,11.93,-2.25,-0.26,9.71
0.12,0.81,11.88,-2.38,-0.18,9.54
0.19,0.87,11.90,-2.13,-0.16,9.77
-0.08,0.93,11.75,-2.25,-0.10,9.65
-0.09,0.98,11.77,-2.23,-0.31,9.38
0.12,0.79,11.63,-2.42,-0.35,9.35
0.50,0.89,11.58,-2.17,-0.34,9.84
0.46,0.93,11.52,-2.07,-0.24,10.19
-0.25,0.27,11.55,-2.49,0.09,10.43
-0.84,-0.48,11.40,-2.40,-0.16,10.44
-0.94,-0.69,11.33,-2.26,-0.36,10.59
-0.60,-0.62,11.35,-2.23,-0.48,10.48
-0.43,-1.48,11.28,-2.45,0.02,10.07
-0.75,-1.64,11.18,-2.22,0.05,9.70
-1.16,-1.32,11.26,-1.79,-0.13,9.79
-1.10,-0.57,11.24,-1.96,-0.41,9.68
-0.62,-0.59,11.18,-2.21,-0.31,9.80
-0.62,-0.50,11.10,-1.98,-0.10,9.84
-0.83,-0.15,11.21,-1.91,-0.03,9.70
-1.08,0.28,11.19,-1.98,-0.17,9.56
-0.90,0.05,11.19,-2.14,-0.35,9.22
-0.44,0.17,11.10,-1.90,-0.31,9.39
-0.33,0.28,11.16,-1.96,-0.28,9.21
-0.12,0.23,11.10,-2.08,-0.15,9.41
-0.00,-0.05,11.16,-1.92,-0.16,9.66
-0.10,-0.02,11.13,-1.94,-0.09,9.93
-0.41,-0.03,11.16,-2.06,-0.16,9.78
-0.25,-0.37,11.18,-2.19,-0.30,9.64
0.24,-0.49,11.20,-1.89,-0.25,9.81
0.19,-0.48,11.22,-2.13,-0.06,9.54
-0.02,-0.68,11.24,-2.07,-0.12,9.69
-0.09,-0.78,11.18,-2.06,-0.36,9.90
0.58,-0.65,11.15,-2.09,-0.45,10.12
0.84,-0.73,11.12,-2.20,-0.28,9.94
0.87,-1.00,11.11,-1.99,-0.02,10.05
-0.37,-0.42,11.05,-2.00,-0.04,9.92
-0.42,-0.35,11.13,-1.89,-0.49,9.78
0.25,-0.18,11.17,-1.91,-0.72,9.57
0.98,0.25,11.08,-1.91,-0.43,9.43
1.23,0.74,11.18,-1.71,-0.06,9.61
0.23,0.96,10.99,-2.17,-0.19,9.49
0.57,0.62,10.97,-2.30,-0.51,9.38
1.35,0.33,10.86,-2.18,-0.46,9.59
1.86,0.02,10.88,-2.20,-0.02,9.58
0.15,-0.20,10.81,-1.74,0.25,9.99
-0.41,-0.35,10.85,-2.28,-0.29,9.46
0.33,-0.58,10.82,-2.13,-0.65,9.71
1.07,-0.64,10.77,-1.88,-0.54,10.19
1.29,-0.94,10.70,-2.11,0.18,9.91
0.48,-1.06,10.66,-1.78,0.01,10.13
0.06,-1.09,10.55,-2.01,-0.24,9.68
0.80,-0.90,10.71,-2.07,-0.49,9.69
1.23,-0.60,10.48,-2.10,0.00,10.14
0.58,-0.48,10.50,-2.06,0.12,10.52
-0.42,-0.60,10.38,-1.84,0.04,10.69
-0.56,-0.61,10.41,-1.87,-0.10,10.47
-0.75,-0.59,10.41,-1.98,-0.21,10.15
-0.90,-0.57,10.34,-1.99,-0.10,10.02
-1.13,-0.38,10.25,-1.74,-0.03,10.21
-1.62,-0.32,10.23,-1.96,-0.02,10.04
-1.76,-0.91,10.16,-1.78,-0.44,9.73
-1.17,-0.50,10.12,-1.62,-0.39,9.86
-1.15,0.15,10.12,-1.65,-0.25,10.05
-1.36,0.40,10.13,-2.06,-0.19,10.30
-0.75,-1.00,9.85,-2.19,-0.26,9.22
-0.55,-1.43,9.89,-1.59,-0.27,9.25
-0.51,-0.89,9.75,-1.53,-0.31,8.98
-0.21,-0.48,9.76,-1.90,-0.38,8.74
0.72,-0.64,9.61,-1.92,-0.16,9.50
0.71,-0.66,9.62,-2.09,0.08,9.85
-0.07,-0.65,9.53,-1.74,0.11,10.45
-0.75,-0.81,9.43,-1.75,-0.02,10.52
-0.39,-0.74,9.47,-1.57,-0.46,10.00
0.21,-0.21,9.44,-1.70,-0.13,9.74
0.02,0.11,9.36,-1.74,0.35,9.78
-1.22,0.20,9.32,-1.57,0.51,10.32
-3.16,-0.11,9.11,-1.75,-0.49,9.89
-2.44,-0.26,9.17,-1.68,-0.73,9.49
-1.21,-0.14,9.05,-1.82,-0.44,8.90
-1.21,-0.16,9.06,-1.61,0.02,9.04
-2.74,-0.43,8.75,-1.99,0.04,8.92
-2.82,-1.02,8.79,-1.73,-0.56,9.09
-1.82,-1.16,8.75,-1.65,-0.83,9.01
-0.93,-1.07,8.73,-1.58,-0.60,9.06
-0.57,-0.94,8.63,-2.02,0.04,9.54
-1.58,-1.22,8.49,-1.78,0.04,10.02
-1.62,-1.29,8.42,-1.61,-0.22,10.23
-1.34,-1.47,8.41,-1.85,-0.66,9.91
0.01,-1.14,8.32,-1.22,-0.42,9.91
-0.12,-0.49,8.24,-1.46,-0.07,9.91
-0.51,-0.04,8.15,-1.86,0.03,9.98
-0.95,-0.29,7.99,-1.68,-0.19,10.11
-0.58,-0.33,7.86,-1.44,-0.47,9.61
-0.11,-0.01,7.76,-1.18,-0.49,9.57
0.33,0.25,7.73,-1.22,-0.33,9.86
0.18,0.27,7.63,-1.59,-0.16,9.90
-0.32,-0.64,7.54,-1.81,-0.09,9.76
-0.58,-1.32,7.27,-1.61,-0.42,9.24
-0.17,-1.52,7.16,-1.20,-0.68,9.10
0.64,-1.11,7.13,-1.21,-0.76,8.98
1.75,-1.09,6.93,-1.58,-0.31,9.24
1.70,-1.36,6.76,-1.60,-0.08,9.55
1.31,-1.41,6.52,-1.45,-0.09,9.77
1.28,-1.35,6.43,-1.60,-0.36,9.55
2.24,-1.43,5.99,-1.16,-0.47,9.73
2.74,-1.14,5.97,-1.32,-0.06,9.73
2.23,-1.00,5.76,-1.40,0.24,9.87
1.32,-1.01,5.49,-1.45,0.28,10.07
0.42,-1.14,5.04,-1.23,-0.34,10.15
0.64,-1.06,4.89,-1.18,-0.46,10.01
0.96,-1.11,4.73,-1.14,-0.30,9.78
0.79,-1.05,4.56,-1.04,0.02,9.86
-0.61,-0.85,4.19,-1.03,0.05,10.20
-1.12,-0.95,4.02,-1.16,-0.20,10.21
-1.26,-1.24,3.78,-1.09,-0.42,10.19
-0.70,-1.42,3.62,-1.10,-0.44,10.01
-0.40,-1.88,3.21,-0.66,-0.16,9.77
-0.30,-1.58,3.09,-0.86,-0.00,9.69
-0.68,-1.72,2.85,-1.35,-0.10,9.41
-0.51,-2.22,2.63,-1.16,-0.24,9.71
-0.96,-2.60,2.24,-0.70,-0.33,10.17
-0.76,-2.48,2.22,-0.77,-0.55,10.06
0.16,-2.43,2.06,-0.76,-0.73,10.01
0.89,-2.15,1.76,-0.63,-0.29,10.10
-0.20,-1.61,1.45,-0.67,0.19,10.30
-0.94,-1.74,1.25,-0.67,-0.07,10.50
-1.16,-2.10,1.11,-0.58,-0.50,10.29
-0.46,-2.13,1.03,-0.39,-0.61,9.98
1.00,-1.53,0.93,-0.16,-0.04,9.36
0.68,-0.83,0.75,-0.06,0.23,9.36
-0.17,-0.19,0.62,0.02,0.15,9.19
-0.42,0.22,0.51,0.05,-0.15,9.18
0.40,0.74,0.47,-0.04,-0.34,9.62
0.62,0.49,0.42,-0.29,-0.18,9.58
0.87,-0.07,0.43,-0.22,0.05,9.67
0.48,-0.63,0.32,-0.15,0.08,9.56
0.36,-0.71,0.33,0.07,-0.29,9.18
0.78,-0.53,0.20,0.14,-0.26,9.29
1.01,-0.38,0.21,0.12,0.03,9.65
0.61,-0.15,0.31,0.11,0.19,10.22
-0.19,-0.63,0.31,-0.52,-0.12,10.19
0.20,-1.02,0.28,-0.22,-0.29,10.22
0.35,-0.97,0.23,0.14,-0.18,10.25
0.12,-0.47,0.24,0.15,-0.04,10.16
-0.19,0.28,0.31,0.18,-0.17,10.09
-0.12,0.57,0.34,0.11,-0.19,10.19
0.16,0.93,0.43,0.01,-0.10,10.14
-0.21,0.86,0.43,-0.09,-0.12,10.00
0.64,0.25,0.45,0.20,-0.37,9.41
0.91,0.75,0.49,0.73,-0.10,9.68
0.57,1.48,0.53,0.35,0.10,9.46
0.32,1.88,0.60,0.01,0.05,9.50
-0.07,1.79,0.55,-0.06,-0.13,10.42
0.04,1.31,0.63,-0.42,-0.09,10.21
0.30,0.53,0.70,-0.44,-0.12,10.13
0.30,-0.30,0.60,-0.27,-0.03,9.73
-0.14,-0.17,0.68,0.04,-0.02,9.26
-0.36,0.18,0.63,-0.26,-0.05,9.05
-0.21,0.13,0.66,-0.26,-0.07,9.29
-0.17,-0.02,0.62,-0.24,-0.10,9.87
0.30,-0.67,0.65,-0.52,-0.17,9.75
0.41,-0.82,0.58,-0.30,-0.22,9.95
0.36,-0.56,0.51,-0.28,-0.21,9.58
0.57,-0.23,0.61,-0.08,-0.30,9.46
1.35,0.41,0.47,-0.22,-0.06,9.79
1.23,0.54,0.46,-0.14,0.19,10.30
0.54,0.45,0.45,-0.51,0.13,10.38
0.04,-0.04,0.32,-0.64,-0.17,10.04
1.06,-0.07,0.35,0.18,-0.47,10.14
1.45,0.49,0.38,0.03,-0.12,10.03
1.15,0.66,0.47,-0.05,0.21,10.28
0.31,0.62,0.30,-0.13,0.30,10.62
-0.28,0.42,0.32,-0.42,-0.00,10.36
-0.41,-0.00,0.28,-0.22,-0.00,10.38
-0.84,-0.56,0.26,-0.20,0.00,10.09
-0.84,-0.94,0.25,-0.38,-0.09,9.46
-0.25,-1.19,0.24,-0.23,-0.02,8.93
-0.30,-1.06,0.19,-0.08,0.21,8.88
-0.66,-0.72,0.26,0.11,0.16,9.13
-0.94,-0.34,0.21,-0.09,-0.07,9.03
-0.19,0.09,0.24,-0.19,-0.48,9.53
0.52,0.08,0.22,-0.36,-0.24,9.69
0.87,-0.07,0.28,-0.21,0.12,10.02
0.31,-0.26,0.26,-0.07,0.30,10.03
-0.22,0.39,0.32,0.21,-0.25,9.77
0.20,1.05,0.29,0.34,-0.42,9.93
0.78,1.61,0.29,0.04,-0.06,10.04
0.80,1.52,0.41,-0.35,0.35,10.29
-1.10,0.25,0.29,-0.05,0.22,10.66
-1.36,0.04,0.36,0.16,-0.17,10.41
-1.01,0.19,0.38,0.07,-0.37,10.20
-0.52,0.27,0.46,-0.24,-0.32,9.99
-0.92,-0.08,0.35,-0.11,0.28,10.88
-1.82,-0.45,0.29,-0.38,0.24,10.43
-1.87,-1.37,0.34,-0.67,-0.12,9.63
-0.86,-2.26,0.33,-0.61,-0.57,8.96
1.12,-1.93,0.26,0.24,-0.02,8.57
1.16,-1.12,0.26,0.01,0.27,8.50
0.56,-0.71,0.11,-0.31,0.43,8.46
0.25,-0.19,0.09,0.06,0.31,9.20
0.59,0.76,0.05,-0.52,-0.25,9.58
1.69,0.39,0.14,-0.46,-0.45,9.75
2.24,0.09,0.06,-0.02,-0.25,10.07
2.49,0.35,-0.01,-0.19,0.22,9.67
1.38,1.09,0.05,0.46,0.46,9.96
0.84,1.66,-0.04,0.12,0.44,9.63
0.30,2.22,0.08,0.28,0.38,10.07
-0.32,2.52,0.11,0.18,0.23,10.53
0.11,0.84,0.16,-0.49,0.18,10.17
0.19,-0.12,0.12,-0.22,0.39,10.15
-0.57,-0.62,0.06,-0.05,0.67,9.77
-1.34,-0.79,0.19,0.14,0.50,9.59
-1.68,-0.67,0.10,-0.09,-0.11,9.28
-0.90,-0.49,0.22,-0.13,0.00,9.69
-1.01,-0.76,0.18,-0.61,0.31,9.92
-1.65,-1.25,0.11,-0.59,0.41,10.29
-2.19,-2.06,0.14,-0.38,-0.25,9.90
-1.15,-1.91,0.14,-0.35,-0.43,9.54
0.07,-1.59,0.18,0.03,-0.12,9.68
0.07,-1.05,0.17,0.03,0.36,9.94
-1.29,-0.11,0.14,-0.14,0.38,10.12
-1.43,-0.08,0.05,-0.13,-0.16,10.14
-0.59,0.05,-0.02,0.11,-0.34,9.99
0.57,0.25,0.13,0.06,-0.20,9.90
0.98,0.82,0.03,0.17,0.51,9.85
0.24,0.98,0.08,0.11,0.41,9.72
-0.05,0.93,-0.06,0.17,0.12,9.38
0.62,0.96,0.08,0.25,-0.24,9.41
2.52,0.90,0.06,-0.04,0.24,9.24
2.51,0.77,0.22,0.01,0.60,9.74
1.70,0.38,0.04,-0.02,0.75,9.59
1.34,-0.10,0.13,-0.26,0.61,9.34
2.34,-0.70,-0.04,0.06,-0.20,8.76
3.54,-0.36,0.10,-0.05,0.13,8.92
3.58,-0.09,-0.00,-0.20,0.74,9.25
2.62,-0.48,-0.06,-0.31,1.14,9.58
1.20,-1.67,-0.07,-0.28,0.12,9.86
1.88,-1.48,0.01,-0.12,-0.23,9.93
3.19,-1.32,0.06,-0.50,-0.19,9.71
4.01,-1.28,-0.05,-0.40,0.43,9.99
2.76,-1.55,-0.07,-0.25,1.14,10.53
1.32,-1.34,-0.11,-0.04,1.14,10.88
0.14,-1.04,-0.07,0.16,0.75,11.02
-0.31,-0.69,-0.07,-0.08,0.31,10.98
0.42,-0.41,0.02,-0.08,0.49,11.06
-0.15,-0.38,-0.03,0.08,0.84,11.27
-1.54,-0.22,-0.15,-0.01,0.86,11.04
-2.69,-0.16,-0.13,-0.04,0.43,10.88
-2.36,-0.91,-0.31,-0.28,-0.41,10.30
-1.01,-1.23,-0.14,0.07,-0.06,10.43
-0.65,-1.44,-0.16,0.05,0.44,10.04
-0.67,-1.76,-0.19,-0.36,0.77,9.19
-1.98,-1.34,-0.49,0.47,0.34,9.00
-1.16,-0.62,-0.55,0.13,0.15,8.62
-0.25,-0.23,-0.33,0.11,-0.05,8.88
0.66,-0.08,-0.34,0.29,0.30,9.28
-0.14,-0.26,-0.25,-0.12,0.94,9.93
-1.24,-0.30,-0.44,0.02,0.49,9.93
-1.04,-0.11,-0.40,0.05,-0.14,9.77
-0.54,0.26,-0.41,0.39,-0.25,10.07
0.67,0.88,-0.22,-0.12,0.61,9.94
-0.04,0.55,-0.30,0.09,0.84,10.08
-0.90,0.39,-0.35,0.14,0.76,9.69
-1.38,0.42,-0.38,0.06,0.25,8.98
0.46,1.14,-0.23,0.58,0.24,8.96
0.56,1.59,-0.24,0.44,0.81,9.17
-0.71,1.90,-0.25,0.27,1.02,9.59
-2.28,1.82,-0.18,-0.24,0.60,9.53
-2.25,1.02,-0.31,0.11,-0.68,10.11
-0.88,0.50,-0.18,-0.13,-0.61,9.71
-0.37,-0.04,-0.19,-0.24,-0.23,9.88
-0.59,-0.19,-0.24,0.12,0.18,10.08
-2.09,-0.25,-0.30,-0.57,0.20,9.89
-1.99,-0.73,-0.36,-0.36,-0.06,9.98
-1.42,-1.16,-0.35,0.13,-0.06,10.43
-1.28,-1.02,-0.25,0.15,0.16,10.39
-1.71,-1.48,-0.22,-0.44,0.09,9.44
-1.38,-1.54,-0.38,-0.18,-0.14,9.43
-1.01,-1.00,-0.41,0.21,-0.19,9.40
-1.21,-0.29,-0.32,0.37,-0.25,9.48
-0.69,0.01,-0.32,-0.15,-0.43,9.06
-0.30,0.18,-0.39,0.34,-0.51,9.62
0.36,0.97,-0.41,0.18,-0.23,9.75
0.10,1.18,-0.35,-0.07,-0.03,9.74
-0.36,0.90,-0.45,0.16,-0.11,9.99
0.01,0.81,-0.36,0.26,-0.16,9.71
0.95,0.59,-0.24,0.06,0.08,9.45
0.87,0.28,-0.29,-0.22,0.31,9.24
-0.36,0.44,-0.40,0.41,0.16,9.37
-0.60,0.79,-0.35,0.20,-0.26,9.34
-0.21,0.61,-0.36,-0.20,-0.44,9.32
0.80,0.10,-0.28,-0.23,-0.30,9.91
-0.63,-0.84,-0.41,-0.65,0.01,10.37
-0.75,-1.69,-0.51,-1.09,-0.39,9.76
0.02,-2.50,-0.60,-0.16,-0.60,9.83
0.82,-2.62,-0.47,0.49,-0.30,9.78
0.36,-1.36,-0.45,-0.05,0.17,9.08
0.12,-1.13,-0.48,0.15,0.10,9.23
0.22,-0.49,-0.55,-0.02,-0.03,9.46
0.24,0.23,-0.72,-0.10,0.03,9.73
0.01,-0.29,-0.59,-0.19,-0.06,10.66
-0.49,-0.77,-0.68,-0.11,-0.20,10.74
-0.44,-0.76,-0.53,0.02,-0.45,10.58
-0.09,-0.60,-0.68,-0.01,-0.57,10.29
0.01,-0.71,-0.68,-0.10,0.15,10.21
-1.07,-0.67,-0.85,0.22,0.17,10.41
-1.83,-0.47,-0.87,0.35,-0.15,10.27
-1.87,-0.45,-0.80,0.10,-0.52,9.70
-0.14,-0.75,-0.91,-0.14,-0.28,9.36
-0.23,-0.97,-1.03,0.09,0.14,9.57
-0.65,-1.00,-1.11,0.20,0.35,9.47
-1.36,-1.05,-1.03,0.15,0.03,9.23
-0.37,-0.80,-1.17,0.15,-0.80,8.80
0.64,-0.52,-1.16,0.20,-0.71,9.20
1.11,-0.38,-1.26,0.02,-0.42,9.46
0.87,-0.67,-1.34,-0.11,-0.20,9.72
1.02,-1.47,-1.43,0.27,-0.19,9.88
0.78,-1.29,-1.35,0.26,-0.25,9.88
0.57,-0.76,-1.50,0.16,-0.46,9.61
0.56,-0.25,-1.53,0.59,-0.36,10.07
0.27,0.29,-1.56,-0.00,-0.09,10.15
-0.11,0.01,-1.47,0.34,-0.04,10.61
-0.72,-0.05,-1.48,0.38,-0.10,10.49
-1.31,-0.01,-1.64,0.29,-0.31,10.06
-1.02,0.18,-1.61,0.12,-0.72,9.85
-0.86,-0.02,-1.71,0.05,-0.41,9.84
-0.90,-0.35,-1.59,0.20,-0.38,9.94
-1.35,-0.73,-1.74,0.15,-0.49,9.55
-0.62,-0.96,-1.74,0.25,-0.93,9.02
0.31,-0.80,-1.81,0.35,-0.73,8.97
1.13,-0.50,-1.59,0.28,-0.35,9.24
0.55,-0.50,-1.74,0.20,-0.01,9.47
-0.16,-0.40,-1.70,0.40,-0.42,9.72
0.26,-0.23,-1.75,0.13,-0.74,9.54
1.32,-0.03,-1.75,0.13,-0.62,9.73
1.58,-0.12,-1.85,0.29,-0.19,10.18
-0.19,-0.42,-1.77,0.02,0.04,10.40
-0.98,-0.78,-1.77,0.40,-0.40,10.52
-0.75,-0.86,-1.73,0.49,-0.74,10.29
-0.13,-0.69,-1.59,0.46,-0.88,9.95
-0.04,-0.24,-1.59,0.24,-0.17,9.82
-0.75,-0.09,-1.63,0.49,0.01,9.93
-1.48,0.32,-1.58,0.75,-0.18,9.97
-1.60,0.69,-1.41,0.52,-0.51,9.46
-0.36,0.57,-1.45,0.32,-0.76,9.17
0.29,0.55,-1.43,0.24,-0.47,9.28
0.11,0.38,-1.46,0.16,-0.11,9.42
-0.58,0.09,-1.49,0.21,-0.07,9.65
-1.02,0.03,-1.46,0.36,-0.98,9.75
-0.12,-0.07,-1.35,0.08,-1.20,9.78
1.06,-0.10,-1.47,0.02,-0.97,10.16
1.36,-0.23,-1.57,0.17,-0.45,10.43
-0.25,-0.59,-1.49,0.15,-0.25,10.32
-0.30,-0.55,-1.57,0.34,-0.69,9.98
0.32,-0.32,-1.50,0.56,-0.89,9.96
0.74,0.39,-1.45,0.35,-0.57,10.01
-0.35,0.38,-1.51,0.22,-0.37,9.92
-0.70,0.40,-1.57,0.46,-0.66,10.07
-0.73,0.47,-1.50,0.37,-0.94,9.67
-0.35,0.49,-1.42,0.21,-1.10,9.50
0.23,0.09,-1.50,0.18,-1.05,9.47
0.43,0.26,-1.53,0.23,-0.97,9.54
0.32,0.24,-1.53,0.23,-1.01,9.50
0.27,0.10,-1.53,0.19,-1.16,9.40
0.77,0.18,-1.49,0.27,-1.35,9.55
1.25,0.26,-1.45,0.02,-1.13,9.67
1.23,-0.02,-1.46,-0.11,-0.83,10.00
0.78,-0.41,-1.58,0.03,-0.56,10.15
-0.02,-0.87,-1.49,0.24,-0.99,9.61
0.35,-0.58,-1.51,0.53,-1.24,9.61
0.89,0.15,-1.46,0.62,-1.04,9.86
0.95,0.98,-1.46,0.35,-0.76,10.33
-0.56,0.67,-1.63,-0.04,-0.74,10.95
-0.76,0.16,-1.54,0.18,-0.98,11.13
-1.37,-0.13,-1.48,0.25,-1.27,10.76
-1.05,-0.08,-1.50,0.37,-1.37,10.25
-0.65,0.31,-1.54,0.27,-1.11,9.56
-0.84,0.58,-1.52,0.25,-0.74,9.42
-1.48,0.79,-1.49,0.54,-0.62,9.72
-2.01,0.96,-1.56,0.58,-0.65,9.69
-2.45,0.82,-1.37,0.13,-1.30,9.29
-2.02,0.73,-1.47,0.27,-1.45,9.26
-1.30,0.73,-1.43,0.25,-1.41,9.38
-0.73,0.75,-1.47,0.09,-1.14,9.53
-1.16,-0.24,-1.51,0.07,-0.91,9.78
-1.48,-0.38,-1.51,0.31,-1.13,9.96
-1.50,-0.31,-1.48,0.08,-1.45,9.77
-0.86,-0.37,-1.45,-0.05,-1.52,9.59
0.24,-0.74,-1.46,0.29,-1.03,9.52
0.10,-0.34,-1.42,0.42,-0.84,9.54
-0.27,0.33,-1.46,0.45,-0.82,9.59
-0.60,0.79,-1.49,0.16,-0.97,9.59
-0.45,0.84,-1.51,0.25,-1.48,10.23
-0.27,0.70,-1.41,0.26,-1.53,10.31
-0.08,0.54,-1.38,0.18,-1.41,10.16
0.09,0.28,-1.37,0.09,-1.19,9.78
-0.56,0.29,-1.34,0.61,-1.18,9.69
-1.09,0.78,-1.31,0.49,-1.39,9.61
-1.25,0.94,-1.21,0.22,-1.69,9.56
-0.79,0.54,-1.23,0.13,-1.78,9.63
0.77,-0.28,-1.07,0.18,-1.24,9.60
0.60,-0.42,-1.11,0.07,-0.97,9.31
0.04,-0.50,-1.16,-0.06,-0.97,8.99
-0.51,-0.50,-1.25,0.04,-1.39,9.03
0.73,0.07,-1.30,0.31,-1.82,9.77
1.33,0.18,-1.19,0.13,-1.34,10.48
1.04,-0.24,-1.16,-0.40,-0.83,10.43
-0.34,-1.01,-1.22,-0.34,-0.90,10.39
-1.58,-1.04,-1.25,0.13,-1.89,9.60
-1.14,-0.56,-1.22,0.33,-2.08,9.52
-0.29,0.05,-1.21,0.52,-1.94,9.67
0.41,0.68,-1.10,0.48,-1.66,9.75
-0.63,1.24,-1.04,0.15,-1.38,9.90
-1.08,1.12,-1.03,0.04,-1.74,9.59
-0.86,0.93,-1.00,0.30,-2.21,9.53
0.19,1.09,-1.00,0.39,-2.21,9.40
0.50,1.30,-0.81,0.34,-1.42,10.16
-0.44,0.80,-0.87,-0.07,-1.36,10.10
-1.18,0.15,-0.75,-0.04,-1.75,10.10
-1.27,-0.27,-0.73,0.00,-2.25,10.01
-0.08,-0.31,-0.57,0.35,-2.12,10.05
-0.19,-0.28,-0.58,0.03,-1.76,9.93
-0.85,-0.44,-0.61,-0.23,-1.54,9.96
-1.62,-0.64,-0.61,-0.15,-1.72,10.46
-2.30,-1.09,-0.54,-0.16,-2.51,10.28
-1.65,-1.10,-0.49,-0.20,-2.52,9.85
-1.07,-1.03,-0.45,0.07,-2.25,9.67
-0.96,-0.70,-0.37,0.24,-2.05,9.96
-2.31,-0.24,-0.37,-0.12,-2.16,9.88
-2.42,-0.40,-0.32,-0.11,-2.50,9.76
-2.10,-0.44,-0.35,-0.04,-2.64,9.35
-1.58,-0.25,-0.28,0.19,-2.62,9.12
-0.70,0.59,-0.25,0.15,-2.39,9.47
-0.92,0.62,-0.16,0.21,-2.38,9.85
-0.94,0.82,-0.11,0.18,-2.31,10.03
-1.43,0.72,-0.07,0.12,-2.35,9.82
-1.59,1.09,-0.05,0.28,-2.64,9.61
-1.38,1.30,-0.02,0.22,-2.73,9.48
-1.00,1.49,-0.01,0.17,-2.59,9.66
-0.75,1.42,0.08,0.07,-2.40,9.79
-1.72,0.61,-0.01,-0.22,-2.40,9.61
-1.91,0.30,-0.05,-0.12,-2.73,9.36
-1.51,0.15,-0.07,0.14,-2.85,9.33
-1.07,0.22,-0.02,-0.11,-2.81,9.39
-0.77,-0.28,-0.09,-0.17,-2.53,9.80
-1.16,-0.44,-0.09,-0.28,-2.51,9.75
-1.53,-0.39,-0.17,-0.12,-2.68,9.50
-1.34,-0.25,-0.13,-0.06,-2.89,9.42
-0.50,-0.26,-0.19,-0.04,-2.87,9.42
-0.06,-0.14,-0.10,0.02,-2.74,9.50
0.06,0.09,-0.10,-0.08,-2.54,9.51
-0.18,0.15,-0.10,-0.23,-2.53,9.46
-0.34,0.15,-0.25,0.02,-2.84,9.66
-0.18,0.31,-0.20,0.21,-2.85,9.91
-0.05,0.54,-0.17,-0.08,-2.85,9.84
-0.03,0.46,-0.13,-0.16,-2.85,9.69
-0.22,0.50,-0.05,0.27,-2.70,9.88
-0.61,0.68,-0.05,0.01,-2.84,9.70
-0.28,0.72,-0.13,-0.19,-3.00,9.50
0.28,0.50,-0.10,0.00,-2.96,9.37
0.30,0.78,-0.05,0.22,-2.49,9.41
-0.09,0.91,0.01,0.16,-2.71,9.44
-0.07,0.80,0.02,0.13,-3.01,9.58
0.53,0.91,0.09,-0.10,-3.13,9.70
1.05,0.61,-0.07,-0.23,-2.78,9.78
0.99,0.41,-0.08,-0.20,-2.55,10.02
0.01,-0.00,-0.19,-0.22,-2.61,10.05
-0.23,-0.26,-0.16,-0.24,-2.77,10.04
-0.10,-0.67,-0.09,-0.01,-2.93,9.82
-0.02,-0.17,-0.04,-0.07,-2.77,9.69
-0.25,0.20,-0.03,0.02,-2.75,9.68
-0.37,0.43,-0.07,-0.02,-2.74,9.98
-0.63,0.63,0.06,0.11,-2.86,10.17
-0.77,0.81,0.09,0.13,-2.82,10.05
-1.00,1.07,0.17,-0.08,-2.87,9.71
-1.09,1.11,0.09,-0.07,-3.12,9.78
-0.26,1.04,0.15,-0.17,-3.01,9.82
-0.53,0.70,0.13,-0.04,-2.84,9.69
-0.86,0.67,0.16,0.05,-2.87,9.41
-1.10,0.69,0.26,0.20,-3.07,9.28
-0.09,0.87,0.39,-0.02,-3.30,9.28
0.59,0.75,0.47,-0.10,-3.12,9.27
0.93,0.79,0.47,0.04,-2.76,9.39
0.37,0.92,0.53,0.15,-2.58,9.69
-0.35,0.84,0.52,-0.31,-3.28,9.77
0.48,0.31,0.61,-0.16,-3.32,9.87
1.06,0.30,0.67,-0.10,-2.99,9.84
0.46,0.46,0.67,0.00,-2.78,9.87
-0.32,0.46,0.60,-0.44,-3.35,10.01
0.01,0.06,0.61,-0.40,-3.43,10.08
0.57,0.00,0.64,-0.27,-3.11,10.15
0.53,0.27,0.60,-0.08,-2.64,10.12
-1.48,0.37,0.53,-0.47,-2.98,9.97
-1.47,0.06,0.49,-0.43,-3.43,9.74
-0.48,-0.09,0.58,-0.22,-3.42,9.59
0.21,0.05,0.55,-0.04,-3.22,9.36
0.05,0.78,0.60,-0.20,-3.04,9.30
-0.12,0.64,0.52,-0.46,-3.40,9.54
0.42,0.25,0.47,-0.66,-3.49,9.71
0.81,-0.34,0.46,-0.42,-3.23,9.78
-0.07,-0.32,0.51,-0.04,-2.80,9.36
-0.75,-0.11,0.40,-0.12,-3.16,9.34
-0.37,0.05,0.36,-0.27,-3.48,9.60
0.23,-0.11,0.40,-0.31,-3.55,9.69
0.54,-0.13,0.43,0.16,-3.01,9.58
0.18,0.26,0.44,0.21,-2.95,9.61
-0.04,0.59,0.48,0.07,-3.09,9.73
-0.16,0.74,0.56,-0.11,-3.33,10.02
0.24,0.69,0.46,-0.18,-3.34,9.98
0.32,0.64,0.48,0.08,-3.17,9.93
0.11,0.75,0.55,0.24,-3.01,9.84
-0.29,1.00,0.56,-0.03,-3.08,9.70
0.03,0.64,0.47,-0.47,-3.63,9.67
0.40,0.07,0.42,-0.55,-3.60,9.65
0.48,-0.35,0.42,-0.31,-3.34,9.89
0.01,-0.65,0.40,-0.19,-3.24,9.88
0.11,-1.17,0.54,-0.22,-3.52,9.46
0.79,-1.14,0.62,-0.23,-3.45,9.64
0.99,-0.71,0.58,-0.22,-3.18,10.15
0.51,-0.23,0.51,-0.18,-3.02,10.35
-0.21,0.11,0.52,0.02,-3.37,9.67
-0.20,0.49,0.56,0.13,-3.40,9.52
-0.28,1.17,0.56,0.20,-3.35,9.73
-0.24,1.89,0.62,0.28,-3.40,9.93
0.48,2.76,0.48,-0.22,-3.86,9.58
1.31,2.72,0.37,-0.07,-3.68,9.75
1.47,2.51,0.28,-0.11,-3.22,10.04
0.74,2.16,0.21,-0.21,-3.00,10.24
-0.49,0.74,0.13,-0.58,-3.40,10.05
-0.28,-0.17,0.10,-0.53,-3.44,9.72
-0.14,-0.74,0.09,-0.29,-3.13,9.73
-0.62,-0.90,-0.02,-0.24,-2.80,9.77
-2.76,-1.55,-0.08,-0.40,-3.21,9.78
-3.13,-2.04,-0.04,-0.47,-3.51,9.71
-2.87,-2.29,0.06,-0.32,-3.40,9.71
-2.64,-2.24,0.14,-0.00,-3.15,9.68
-4.06,-1.29,0.10,-0.22,-3.19,9.39
-4.35,-1.08,0.00,-0.36,-3.57,9.66
-4.08,-1.23,0.07,-0.61,-3.79,9.75
-3.60,-1.68,0.13,-0.35,-3.69,9.62
-3.74,-1.50,0.33,0.10,-3.19,9.24
-4.43,-0.96,0.32,0.02,-3.41,9.32
-4.11,-0.50,0.28,-0.30,-3.80,9.47
-3.34,-0.41,0.19,-0.35,-3.95,9.52
-2.39,-0.58,0.24,-0.08,-3.46,9.15
-2.72,-0.40,0.16,0.02,-3.39,9.20
-2.82,-0.34,0.13,-0.08,-3.57,9.37
-2.54,-0.53,0.08,-0.38,-3.80,9.54
-1.45,-1.19,0.00,-0.28,-3.58,9.87
-2.18,-1.34,-0.07,-0.11,-3.39,10.33
-3.12,-1.35,-0.13,-0.14,-3.54,10.61
-3.47,-1.47,-0.13,-0.08,-3.90,10.67
-2.09,-1.21,-0.05,0.05,-3.89,10.50
-1.94,-0.56,-0.11,0.13,-3.55,10.39
-2.31,0.03,-0.11,0.21,-3.58,10.27
-2.63,0.24,-0.08,0.09,-3.92,9.87
-1.68,0.29,-0.06,0.30,-3.77,9.18
-1.73,0.62,-0.06,0.46,-3.51,9.53
-2.02,1.09,0.04,0.20,-3.68,9.60
-1.98,1.15,0.03,0.03,-4.11,9.70
-0.64,0.70,0.09,0.19,-4.04,9.69
-0.72,0.68,0.11,0.35,-3.67,9.59
-1.12,0.90,0.11,0.40,-3.55,9.54
-1.39,0.96,0.09,0.09,-3.85,9.44
-0.61,0.12,0.21,-0.01,-3.99,9.45
-0.57,-0.30,0.25,0.00,-3.83,9.28
-0.66,-0.47,0.23,0.05,-3.76,9.08
-0.79,-0.50,0.23,0.11,-3.84,8.98
-0.10,-0.31,0.25,-0.19,-3.85,8.89
0.10,-0.35,0.31,-0.21,-3.77,8.94
0.03,-0.40,0.28,-0.25,-3.70,8.82
-0.38,-0.36,0.23,-0.28,-3.64,8.65
-0.69,-0.28,0.15,-0.32,-3.88,8.77
-0.39,-0.23,0.14,-0.37,-4.06,8.85
0.09,-0.25,0.19,-0.28,-4.11,8.87
0.49,-0.05,0.22,-0.30,-4.02,8.78
0.84,0.50,0.06,-0.08,-3.87,8.89
0.98,0.74,0.04,-0.28,-3.91,8.93
1.30,0.63,0.05,-0.38,-4.05,8.91
1.79,0.39,0.03,-0.33,-4.06,9.12
2.01,-0.04,-0.14,-0.37,-3.70,9.46
1.68,-0.43,-0.21,-0.34,-3.77,9.70
1.47,-0.94,-0.25,-0.45,-3.92,9.84
1.46,-1.51,-0.28,-0.46,-3.94,9.86
1.79,-2.04,-0.31,-0.26,-3.62,9.84
1.36,-2.05,-0.33,-0.20,-3.49,9.88
0.66,-2.07,-0.36,-0.18,-3.61,10.09
0.18,-2.16,-0.36,-0.22,-3.85,10.21
0.61,-1.96,-0.19,0.00,-3.87,10.10
0.75,-1.37,-0.15,0.20,-3.61,10.09
0.42,-0.66,-0.09,0.18,-3.59,10.05
0.15,-0.21,-0.10,0.02,-3.85,10.07
0.60,-0.16,0.03,0.01,-4.01,10.21
0.75,-0.16,0.10,0.17,-3.80,10.15
0.42,-0.02,0.15,0.31,-3.67,10.12
0.12,0.26,0.22,0.18,-3.76,10.09
0.53,0.13,0.22,-0.02,-4.07,10.11
0.97,-0.03,0.20,0.02,-3.88,10.04
1.02,-0.12,0.17,0.17,-3.59,9.99
0.58,-0.19,0.18,0.16,-3.53,9.82
0.54,-0.44,0.20,0.04,-3.79,9.80
0.65,-0.56,0.18,-0.03,-3.74,9.72
0.67,-0.53,0.09,0.04,-3.61,9.68
0.50,-0.37,0.00,0.07,-3.55,9.57
0.43,-0.11,-0.00,0.12,-3.63,9.33
0.59,0.09,0.02,0.17,-3.59,9.30
0.66,0.32,0.02,0.14,-3.47,9.16
0.62,0.63,0.01,0.11,-3.42,9.09
0.59,1.00,-0.02,-0.02,-3.60,9.16
0.73,0.89,0.02,0.02,-3.62,9.36
0.82,0.73,0.07,0.07,-3.50,9.47
0.74,0.61,0.13,0.10,-3.38,9.46
0.22,0.50,0.14,-0.07,-3.63,9.63
0.42,0.35,0.16,-0.14,-3.71,9.91
0.59,0.14,0.20,-0.18,-3.68,10.05
0.58,-0.19,0.24,-0.06,-3.55,10.04
0.22,-0.17,0.32,-0.02,-3.29,9.98
-0.06,-0.09,0.32,-0.17,-3.40,10.04
0.11,-0.08,0.28,-0.31,-3.51,10.15
0.39,-0.27,0.26,-0.28,-3.45,10.11
0.07,-0.31,0.29,-0.06,-3.06,9.84
-0.37,-0.21,0.32,-0.06,-3.04,9.80
-0.47,0.01,0.33,-0.25,-3.17,9.83
-0.53,0.04,0.25,-0.37,-3.34,9.73
-0.14,-0.11,0.21,-0.32,-3.35,9.60
-0.55,-0.09,0.13,-0.20,-3.20,9.61
-0.82,-0.06,0.12,-0.27,-3.30,9.45
-0.84,-0.15,0.06,-0.24,-3.52,9.40
-0.23,-0.14,-0.01,-0.26,-3.54,9.35
-0.15,-0.12,-0.07,-0.18,-3.48,9.36
0.16,-0.00,-0.10,-0.12,-3.40,9.32
0.38,-0.04,-0.15,-0.20,-3.35,9.26
0.60,-0.36,-0.17,-0.10,-3.14,9.60
0.45,-0.55,-0.20,-0.18,-3.06,9.67
0.32,-0.66,-0.20,-0.21,-3.09,9.78
0.34,-0.82,-0.27,-0.14,-3.17,9.88
0.23,-1.26,-0.19,-0.00,-3.17,10.01
0.09,-1.17,-0.17,0.06,-3.17,10.05
0.11,-0.95,-0.14,0.02,-3.31,9.96
0.29,-0.87,-0.14,0.06,-3.40,9.92
0.64,-0.55,-0.07,0.07,-3.14,9.80
0.38,-0.48,0.00,0.17,-3.05,9.68
0.31,-0.30,0.07,0.13,-3.05,9.57
0.15,-0.20,0.07,0.09,-3.08,9.50
0.41,-0.02,0.16,-0.02,-3.11,9.47
0.43,-0.04,0.14,0.10,-3.02,9.45
0.39,0.08,0.20,0.16,-2.89,9.50
0.23,0.18,0.25,0.09,-2.92,9.48
0.35,0.03,0.26,0.01,-3.14,9.59
0.54,-0.01,0.26,-0.05,-3.08,9.59
0.52,-0.09,0.26,0.00,-2.99,9.59
0.47,-0.03,0.25,-0.02,-2.99,9.58
0.41,-0.23,0.19,0.02,-2.91,9.74
0.33,-0.21,0.21,-0.01,-2.87,9.75
0.22,-0.27,0.24,0.02,-2.90,9.68
0.19,-0.26,0.18,0.07,-2.90,9.72
0.19,0.09,0.14,0.03,-2.87,9.82
0.14,0.21,0.12,0.03,-2.91,9.93
0.25,0.34,0.11,-0.04,-2.93,9.92
0.28,0.35,0.11,-0.06,-2.87,9.91
0.02,0.41,0.03,-0.11,-2.86,9.88
0.04,0.37,-0.00,-0.08,-2.85,9.89
0.05,0.38,-0.01,-0.10,-2.82,9.92
0.03,0.32,-0.02,-0.07,-2.78,9.79
0.19,0.34,-0.02,-0.07,-2.66,9.68
0.09,0.35,-0.02,-0.13,-2.65,9.69
0.02,0.28,-0.03,-0.17,-2.69,9.77
-0.03,0.12,-0.08,-0.14,-2.71,9.76
-0.09,-0.04,-0.05,-0.09,-2.68,9.61
-0.10,0.01,-0.05,-0.01,-2.69,9.63
-0.03,0.09,-0.02,-0.02,-2.69,9.72
0.00,0.23,-0.03,-0.11,-2.72,9.73
0.20,0.21,0.01,-0.11,-2.76,9.63
0.27,0.13,0.02,-0.10,-2.66,9.63
0.23,0.15,0.06,-0.03,-2.53,9.72
0.10,0.17,0.06,-0.06,-2.48,9.72
0.09,-0.01,0.07,-0.15,-2.57,9.53
0.08,-0.14,0.08,-0.11,-2.56,9.56
-0.08,-0.25,0.10,-0.05,-2.52,9.69
-0.27,-0.32,0.12,-0.06,-2.57,9.75
-0.28,-0.49,0.21,-0.04,-2.80,9.71
-0.18,-0.50,0.23,-0.02,-2.83,9.65
-0.03,-0.42,0.24,0.04,-2.74,9.64
0.06,-0.25,0.25,0.07,-2.68,9.64
-0.03,-0.07,0.30,-0.03,-2.65,9.77
-0.25,-0.13,0.30,-0.12,-2.72,9.78
-0.28,-0.21,0.30,-0.17,-2.80,9.69
-0.16,-0.24,0.26,-0.09,-2.77,9.61
-0.06,0.01,0.22,0.09,-2.58,9.62
-0.27,0.16,0.22,0.04,-2.63,9.76
-0.43,0.20,0.21,-0.13,-2.82,9.75
-0.18,0.06,0.17,-0.22,-2.95,9.66
0.36,-0.00,0.05,-0.00,-2.56,9.62
0.00,0.11,0.04,0.00,-2.43,9.69
-0.44,0.15,-0.01,-0.05,-2.58,9.75
-0.48,0.01,-0.04,-0.13,-2.85,9.75
0.18,-0.21,-0.09,-0.04,-2.78,9.71
0.22,-0.02,-0.13,0.11,-2.57,9.68
-0.00,0.20,-0.16,0.10,-2.53,9.70
-0.26,0.30,-0.17,0.01,-2.68,9.77
0.08,0.02,-0.11,-0.09,-2.83,9.90
0.25,-0.07,-0.10,-0.03,-2.64,9.78
0.11,-0.01,-0.09,0.06,-2.48,9.70
-0.21,0.14,-0.08,0.09,-2.49,9.71
-0.24,0.06,-0.02,-0.05,-2.75,9.80
0.09,0.00,0.01,-0.04,-2.70,9.74
0.22,-0.01,0.06,0.01,-2.56,9.62
-0.08,0.11,0.07,0.07,-2.48,9.64
-0.61,0.18,0.10,-0.13,-2.81,9.84
-0.32,0.01,0.13,-0.15,-2.94,9.83
0.05,-0.14,0.18,-0.05,-2.82,9.64
0.10,-0.08,0.19,0.08,-2.59,9.48
-0.42,0.36,0.18,-0.07,-2.64,9.66
-0.36,0.24,0.17,-0.24,-2.87,9.75
0.02,-0.09,0.23,-0.24,-2.89,9.70
0.23,-0.32,0.24,-0.10,-2.67,9.56
-0.35,0.04,0.22,0.01,-2.50,9.53
-0.49,0.16,0.22,-0.15,-2.74,9.68
-0.16,-0.01,0.21,-0.28,-2.94,9.75
0.26,-0.29,0.20,-0.22,-2.88,9.69
0.15,-0.12,0.15,0.04,-2.45,9.58
-0.22,0.12,0.11,-0.06,-2.54,9.64
-0.25,0.13,0.09,-0.22,-2.79,9.78
0.06,-0.05,0.07,-0.28,-2.91,9.88
0.23,-0.26,0.05,-0.00,-2.57,9.72
-0.14,-0.07,0.01,0.05,-2.51,9.65
-0.33,0.13,-0.04,-0.06,-2.66,9.68
-0.09,0.13,-0.06,-0.18,-2.81,9.80
0.36,-0.16,-0.04,-0.10,-2.56,9.77
0.03,-0.15,-0.07,0.03,-2.42,9.69
-0.41,-0.01,-0.10,0.02,-2.53,9.67
-0.55,0.00,-0.12,-0.08,-2.75,9.75
0.02,-0.26,-0.11,-0.10,-2.87,9.86
0.09,-0.28,-0.11,0.05,-2.70,9.75
-0.08,-0.19,-0.09,0.13,-2.60,9.62
-0.26,-0.04,-0.06,0.08,-2.66,9.55
-0.02,-0.05,-0.05,-0.08,-2.83,9.76
0.08,-0.13,-0.04,-0.05,-2.76,9.77
-0.02,-0.20,-0.03,0.02,-2.68,9.64
-0.18,-0.16,-0.00,0.10,-2.67,9.52
-0.19,0.00,0.08,0.06,-2.79,9.63
-0.09,0.06,0.11,0.01,-2.83,9.74
-0.00,0.07,0.11,-0.03,-2.85,9.72
0.10,0.05,0.14,-0.00,-2.83,9.63
0.03,0.04,0.19,0.06,-2.72,9.67
-0.21,0.06,0.21,0.02,-2.76,9.80
-0.43,0.01,0.25,-0.03,-2.92,9.86
-0.32,-0.09,0.28,-0.20,-3.08,9.71
0.58,0.06,0.08,-0.01,-2.76,9.50
0.67,0.28,0.03,0.01,-2.46,9.48
0.65,0.34,0.07,-0.05,-2.40,9.36
1.06,0.31,0.06,-0.10,-2.29,9.26
2.61,0.31,-0.03,-0.19,-1.54,8.95
3.09,0.36,-0.11,-0.10,-1.09,8.95
3.47,0.21,-0.14,-0.11,-0.83,8.85
3.74,-0.14,-0.10,-0.25,-0.65,8.68
5.21,-0.30,0.01,0.10,-0.20,8.85
5.45,-0.28,0.08,0.17,0.02,8.93
5.28,-0.10,0.08,0.18,0.25,8.91
4.79,0.03,0.14,0.17,0.41,8.89
4.28,0.33,0.27,-0.05,0.48,8.82
4.32,0.33,0.29,-0.06,0.38,8.93
4.53,0.24,0.28,0.02,0.28,9.10
4.87,0.11,0.29,0.04,0.26,9.16
5.48,-0.09,0.34,-0.09,0.42,9.15
5.75,-0.08,0.27,-0.10,0.46,9.24
5.92,0.03,0.24,-0.10,0.52,9.40
5.75,0.12,0.21,-0.09,0.58,9.64
4.94,0.06,0.13,-0.12,0.66,10.06
4.50,0.00,0.08,-0.15,0.56,10.18
4.17,-0.03,0.03,-0.14,0.43,10.23
3.98,-0.03,-0.00,-0.10,0.29,10.34
3.70,0.12,-0.09,-0.05,0.26,10.66
3.37,0.21,-0.12,-0.04,0.32,10.84
2.81,0.23,-0.12,-0.08,0.36,10.96
2.18,0.21,-0.12,-0.07,0.28,11.07
1.43,0.17,-0.11,0.04,-0.00,11.19
1.34,0.19,-0.10,0.05,0.01,11.20
1.10,0.23,-0.09,0.03,0.12,11.20
0.59,0.25,-0.06,0.07,0.20,11.22
-0.37,0.24,0.02,0.06,0.05,11.20
-0.51,0.19,0.05,0.02,-0.03,11.09
-0.51,0.14,0.11,0.02,0.01,10.93
-0.65,0.06,0.14,0.02,0.09,10.75
-1.11,-0.01,0.16,0.01,0.04,10.46
-1.11,-0.06,0.18,-0.08,-0.08,10.26
-0.89,-0.17,0.19,-0.15,-0.16,10.09
-0.62,-0.32,0.18,-0.12,-0.17,9.96
-0.45,-0.23,0.16,-0.08,-0.12,9.71
-0.54,-0.08,0.13,-0.07,-0.15,9.61
-0.61,0.07,0.11,-0.09,-0.24,9.60
-0.60,0.19,0.08,-0.11,-0.37,9.69
-0.36,0.25,0.01,-0.19,-0.43,9.82
-0.42,0.20,-0.01,-0.15,-0.35,9.81
-0.62,0.21,-0.05,-0.08,-0.31,9.78
-0.84,0.28,-0.07,-0.04,-0.37,9.76
-0.86,0.25,-0.09,-0.10,-0.52,9.69
-0.70,0.16,-0.09,-0.06,-0.45,9.66
-0.68,0.09,-0.06,-0.00,-0.33,9.60
-0.78,0.02,-0.06,0.02,-0.26,9.51
-0.75,-0.07,-0.00,0.03,-0.33,9.36
-0.52,-0.10,0.02,0.03,-0.34,9.31
-0.25,-0.13,0.06,0.03,-0.29,9.27
-0.07,-0.17,0.08,0.03,-0.20,9.25
0.02,-0.19,0.11,0.04,-0.14,9.22
0.07,-0.11,0.13,0.04,-0.19,9.23
0.26,-0.02,0.16,0.02,-0.24,9.29
0.48,0.06,0.16,-0.02,-0.25,9.39
0.59,0.14,0.16,-0.04,-0.14,9.66
0.45,0.17,0.15,-0.06,-0.14,9.77
0.30,0.19,0.14,-0.08,-0.21,9.87
0.29,0.21,0.12,-0.08,-0.26,9.98
0.31,0.25,0.07,-0.13,-0.23,10.20
0.17,0.17,0.03,-0.15,-0.15,10.25
-0.04,0.09,-0.01,-0.13,-0.09,10.25
-0.25,0.04,-0.05,-0.09,-0.11,10.19
-0.33,0.06,-0.07,-0.08,-0.18,10.06
-0.24,0.03,-0.06,-0.08,-0.15,10.00
-0.22,-0.04,-0.06,-0.08,-0.08,9.96
-0.29,-0.09,-0.08,-0.07,-0.03,9.88
-0.32,-0.15,-0.04,-0.03,-0.11,9.71
-0.16,-0.13,-0.02,-0.02,-0.18,9.65
0.06,-0.13,0.00,-0.01,-0.17,9.64
0.19,-0.09,0.04,-0.00,-0.12,9.65
0.06,-0.07,0.07,-0.01,-0.13,9.69
0.05,-0.04,0.10,-0.01,-0.22,9.71
0.11,0.00,0.12,-0.02,-0.30,9.73
0.19,0.03,0.11,-0.03,-0.31,9.76
0.10,0.04,0.16,-0.04,-0.23,9.82
-0.07,0.06,0.15,-0.05,-0.24,9.85
-0.17,0.03,0.14,-0.06,-0.29,9.83
-0.10,0.00,0.15,-0.05,-0.32,9.78
-0.06,0.02,0.13,-0.05,-0.26,9.75
-0.09,0.00,0.09,-0.06,-0.20,9.74
-0.16,-0.01,0.08,-0.08,-0.19,9.74
-0.21,-0.06,0.06,-0.08,-0.22,9.71
0.01,-0.12,0.01,-0.05,-0.25,9.67
0.12,-0.08,-0.01,-0.03,-0.20,9.67
0.18,-0.02,-0.04,-0.03,-0.16,9.71
0.16,-0.01,-0.03,-0.04,-0.16,9.75
0.20,0.01,-0.05,-0.03,-0.21,9.82
0.25,0.05,-0.03,-0.01,-0.23,9.83
0.28,0.06,-0.02,0.01,-0.21,9.86
0.27,0.11,-0.01,0.01,-0.18,9.91
0.09,0.10,0.02,-0.02,-0.17,9.99
0.04,0.06,0.04,-0.02,-0.18,9.98
0.00,0.04,0.07,-0.01,-0.19,9.95
0.01,0.04,0.08,-0.00,-0.18,9.93
-0.12,0.03,0.12,-0.04,-0.13,9.89
-0.16,-0.02,0.13,-0.06,-0.13,9.87
-0.18,-0.06,0.13,-0.07,-0.14,9.82
-0.17,-0.07,0.13,-0.05,-0.13,9.77
-0.08,-0.05,0.10,-0.06,-0.13,9.70
-0.06,-0.06,0.12,-0.09,-0.13,9.71
-0.03,-0.07,0.12,-0.11,-0.13,9.72
-0.03,-0.08,0.09,-0.10,-0.13,9.72
-0.03,-0.02,0.02,-0.07,-0.19,9.71
-0.01,-0.02,0.01,-0.07,-0.21,9.74
0.03,0.01,-0.00,-0.08,-0.22,9.77
0.01,0.04,-0.01,-0.09,-0.23,9.80
-0.03,0.03,-0.02,-0.06,-0.25,9.83
-0.07,0.03,-0.02,-0.04,-0.27,9.82
-0.09,0.03,-0.00,-0.03,-0.27,9.82
-0.06,0.04,0.00,-0.04,-0.28,9.83
-0.06,0.00,0.02,-0.03,-0.25,9.82
-0.09,-0.01,0.03,-0.02,-0.24,9.80
-0.13,-0.05,0.04,-0.01,-0.23,9.78
-0.09,-0.05,0.04,-0.01,-0.25,9.76
0.03,-0.02,0.07,-0.01,-0.22,9.76
0.09,-0.04,0.06,-0.02,-0.20,9.77
0.09,-0.04,0.07,-0.02,-0.18,9.77
0.09,-0.03,0.08,-0.02,-0.18,9.78
0.14,-0.01,0.09,-0.03,-0.20,9.81
0.19,0.02,0.09,-0.04,-0.19,9.83
0.18,0.02,0.09,-0.06,-0.17,9.85
0.12,0.01,0.07,-0.06,-0.16,9.87
0.04,-0.00,0.07,-0.06,-0.18,9.86
0.04,0.01,0.05,-0.06,-0.18,9.86
0.03,0.01,0.05,-0.07,-0.18,9.86
-0.02,-0.01,0.04,-0.07,-0.15,9.85
-0.12,-0.00,0.01,-0.06,-0.14,9.83
-0.15,-0.02,0.02,-0.06,-0.15,9.80
-0.13,-0.00,0.03,-0.06,-0.16,9.77
-0.09,0.00,0.01,-0.05,-0.16,9.76
-0.07,0.00,0.01,-0.04,-0.15,9.76
-0.09,-0.04,0.02,-0.05,-0.15,9.75
-0.08,-0.06,0.01,-0.05,-0.18,9.75
-0.03,-0.05,0.03,-0.04,-0.20,9.76
0.01,-0.01,0.06,-0.03,-0.20,9.78
0.02,0.01,0.06,-0.03,-0.21,9.81
-0.02,-0.01,0.05,-0.03,-0.21,9.82
-0.03,-0.02,0.06,-0.03,-0.23,9.83
-0.01,0.02,0.07,-0.03,-0.25,9.83
0.00,0.00,0.08,-0.03,-0.24,9.84
-0.02,-0.01,0.09,-0.04,-0.23,9.84
-0.05,0.01,0.09,-0.04,-0.23,9.84
-0.09,-0.00,0.07,-0.04,-0.23,9.81
-0.06,-0.01,0.07,-0.04,-0.24,9.79
-0.02,-0.03,0.06,-0.04,-0.23,9.78
0.01,-0.02,0.05,-0.05,-0.21,9.77
0.00,-0.00,0.04,-0.04,-0.19,9.77
0.03,-0.02,0.05,-0.04,-0.19,9.77
0.06,0.00,0.04,-0.04,-0.19,9.76
0.08,0.01,0.02,-0.04,-0.19,9.77
0.09,0.01,0.02,-0.04,-0.18,9.80
0.06,0.01,0.02,-0.04,-0.18,9.81
0.06,0.02,0.02,-0.04,-0.18,9.82
0.04,0.01,0.03,-0.04,-0.18,9.82
0.02,0.05,0.06,-0.04,-0.18,9.83
0.02,0.04,0.07,-0.04,-0.17,9.83
-0.02,0.02,0.06,-0.04,-0.17,9.84
-0.07,0.02,0.07,-0.05,-0.17,9.83
-0.08,0.01,0.06,-0.05,-0.18,9.81
-0.07,0.01,0.07,-0.05,-0.18,9.80
-0.07,-0.02,0.09,-0.06,-0.17,9.81
-0.05,-0.01,0.06,-0.06,-0.17,9.81
-0.04,-0.02,0.07,-0.06,-0.18,9.80
-0.02,-0.02,0.06,-0.06,-0.19,9.79
-0.03,-0.02,0.07,-0.05,-0.20,9.79
-0.02,-0.03,0.06,-0.05,-0.20,9.79
-0.00,-0.00,0.02,-0.05,-0.21,9.80
0.00,0.02,0.03,-0.05,-0.22,9.81
-0.03,0.00,0.04,-0.05,-0.23,9.80
-0.02,0.02,0.04,-0.04,-0.23,9.81
0.00,0.03,0.01,-0.05,-0.23,9.81
-0.01,0.02,-0.00,-0.05,-0.21,9.82
-0.02,0.01,0.01,-0.04,-0.21,9.82
-0.06,-0.03,0.04,-0.03,-0.21,9.81
-0.03,-0.01,0.03,-0.03,-0.22,9.79
-0.00,-0.02,0.05,-0.02,-0.20,9.79
0.02,-0.00,0.06,-0.03,-0.19,9.79
-0.00,-0.03,0.06,-0.04,-0.18,9.78
0.01,-0.01,0.07,-0.04,-0.19,9.78
0.04,-0.01,0.08,-0.04,-0.19,9.78
0.07,0.00,0.07,-0.04,-0.18,9.79
0.08,0.02,0.07,-0.04,-0.17,9.80
0.01,-0.01,0.07,-0.05,-0.17,9.82
0.01,-0.00,0.07,-0.06,-0.18,9.82
0.00,0.01,0.07,-0.06,-0.18,9.82
0.01,0.00,0.07,-0.06,-0.19,9.83
-0.04,0.01,0.05,-0.06,-0.18,9.84
-0.06,0.01,0.03,-0.07,-0.19,9.83
-0.07,0.03,0.01,-0.06,-0.20,9.82
-0.05,0.03,0.03,-0.05,-0.20,9.82
-0.05,-0.00,0.03,-0.05,-0.20,9.80
-0.03,-0.03,0.03,-0.04,-0.19,9.79
-0.04,-0.03,0.02,-0.04,-0.20,9.79
-0.04,-0.02,0.01,-0.04,-0.20,9.79
-0.02,-0.02,0.05,-0.03,-0.21,9.77
0.02,-0.00,0.05,-0.03,-0.20,9.78
0.02,0.03,0.04,-0.03,-0.20,9.78
-0.00,0.02,0.04,-0.03,-0.20,9.79
0.01,0.00,0.07,-0.03,-0.21,9.80
-0.00,-0.01,0.08,-0.03,-0.21,9.80
0.02,-0.01,0.06,-0.04,-0.20,9.81
0.02,-0.01,0.05,-0.04,-0.20,9.81
0.01,0.01,0.04,-0.04,-0.21,9.81
-0.03,0.01,0.04,-0.05,-0.21,9.81
-0.01,-0.01,0.05,-0.05,-0.21,9.81
-0.00,0.00,0.04,-0.05,-0.20,9.81
0.02,0.01,0.05,-0.07,-0.19,9.81
0.00,-0.01,0.04,-0.06,-0.19,9.80
-0.01,-0.00,0.02,-0.06,-0.18,9.80
0.01,0.01,0.02,-0.06,-0.18,9.79
0.03,-0.02,0.03,-0.06,-0.19,9.79
0.03,-0.01,0.03,-0.07,-0.19,9.80
0.02,-0.01,0.02,-0.06,-0.18,9.80
0.02,-0.01,0.03,-0.05,-0.18,9.81
0.00,-0.03,0.05,-0.04,-0.19,9.81
0.01,-0.02,0.02,-0.04,-0.19,9.82
-0.01,-0.02,0.03,-0.04,-0.19,9.82
-0.01,-0.04,0.07,-0.04,-0.18,9.82
-0.06,-0.03,0.05,-0.04,-0.19,9.81
-0.07,-0.06,0.06,-0.04,-0.19,9.81
-0.02,-0.04,0.06,-0.04,-0.20,9.81
-0.02,-0.02,0.07,-0.04,-0.20,9.81
-0.04,0.00,0.06,-0.06,-0.20,9.80
-0.05,-0.02,0.05,-0.05,-0.20,9.79
-0.03,-0.04,0.04,-0.05,-0.20,9.79
-0.02,-0.02,0.04,-0.05,-0.21,9.79
-0.00,-0.02,0.04,-0.05,-0.20,9.80
0.01,-0.02,0.03,-0.05,-0.21,9.80
0.00,-0.01,0.03,-0.05,-0.21,9.79
0.01,-0.02,0.03,-0.05,-0.22,9.79
0.01,-0.06,0.03,-0.04,-0.21,9.80
0.01,-0.03,0.03,-0.05,-0.21,9.80
0.00,-0.01,0.04,-0.04,-0.20,9.80
-0.01,0.01,0.04,-0.03,-0.20,9.80
0.01,-0.03,0.05,-0.03,-0.20,9.80
-0.00,-0.01,0.05,-0.03,-0.20,9.80
-0.00,0.01,0.06,-0.04,-0.20,9.80
-0.01,0.00,0.07,-0.04,-0.20,9.79
-0.00,0.00,0.06,-0.04,-0.19,9.79
-0.01,-0.00,0.05,-0.04,-0.19,9.80
-0.01,0.02,0.05,-0.04,-0.20,9.80
0.00,0.01,0.06,-0.04,-0.19,9.79
0.01,-0.01,0.04,-0.04,-0.18,9.81
0.01,-0.00,0.05,-0.05,-0.19,9.81
-0.01,0.01,0.05,-0.04,-0.19,9.81
0.01,0.00,0.06,-0.05,-0.19,9.81
-0.02,0.01,0.03,-0.05,-0.19,9.82
-0.00,0.01,0.04,-0.05,-0.19,9.82
-0.02,0.01,0.04,-0.05,-0.19,9.82
-0.03,0.03,0.06,-0.05,-0.20,9.82
-0.05,0.01,0.05,-0.04,-0.19,9.81
-0.03,0.00,0.04,-0.05,-0.20,9.80
-0.04,0.01,0.04,-0.05,-0.20,9.80
-0.05,0.02,0.04,-0.05,-0.20,9.80
-0.06,0.01,0.04,-0.05,-0.20,9.79
-0.04,0.00,0.04,-0.05,-0.21,9.78
-0.02,0.02,0.06,-0.05,-0.21,9.78
-0.02,0.00,0.07,-0.05,-0.21,9.78
0.02,0.01,0.05,-0.06,-0.21,9.78
0.02,0.01,0.04,-0.05,-0.20,9.78
0.01,-0.00,0.06,-0.04,-0.20,9.78
