angleSpeedx_y_z;lineAccx_y_z
0.05,-0.01,0.04,0.02,-0.16,9.80
0.03,-0.02,0.06,0.02,-0.16,9.81
0.04,0.00,0.06,0.02,-0.16,9.81
0.05,0.01,0.06,0.01,-0.16,9.81
0.04,0.01,0.05,0.01,-0.15,9.81
0.02,0.02,0.03,0.01,-0.15,9.81
-0.00,-0.00,0.04,0.01,-0.16,9.81
0.03,-0.00,0.03,0.02,-0.15,9.80
0.01,0.01,0.04,0.02,-0.14,9.81
-0.02,-0.01,0.04,0.02,-0.15,9.81
-0.04,-0.00,0.05,0.01,-0.15,9.81
-0.02,0.00,0.04,0.02,-0.16,9.80
-0.02,-0.00,0.05,0.02,-0.16,9.80
-0.03,0.02,0.04,0.02,-0.16,9.80
-0.04,0.03,0.03,0.02,-0.16,9.80
-0.00,-0.03,0.06,0.02,-0.17,9.80
-0.02,-0.02,0.04,0.02,-0.17,9.80
-0.01,0.01,0.05,0.02,-0.17,9.80
-0.01,-0.01,0.06,0.02,-0.16,9.80
-0.02,-0.01,0.07,0.01,-0.16,9.81
-0.00,-0.02,0.07,0.02,-0.16,9.81
-0.01,-0.03,0.06,0.02,-0.16,9.80
-0.02,-0.01,0.06,0.02,-0.17,9.80
-0.01,0.01,0.05,0.01,-0.18,9.80
-0.00,-0.02,0.04,0.01,-0.17,9.80
-0.01,-0.02,0.06,0.02,-0.16,9.80
-0.00,-0.01,0.05,0.02,-0.17,9.79
0.01,0.00,0.05,0.01,-0.17,9.80
0.03,-0.02,0.03,0.01,-0.17,9.80
-0.01,-0.04,0.02,0.01,-0.16,9.80
-0.03,-0.03,0.04,0.02,-0.16,9.80
-0.04,-0.06,0.04,0.02,-0.16,9.80
-0.03,-0.04,0.04,0.01,-0.17,9.80
-0.01,-0.02,0.03,0.02,-0.16,9.80
-0.02,-0.02,0.04,0.02,-0.16,9.80
-0.02,-0.01,0.04,0.03,-0.16,9.80
-0.02,0.01,0.02,0.02,-0.16,9.80
-0.01,0.01,0.02,0.02,-0.16,9.80
-0.02,-0.00,0.04,0.03,-0.16,9.80
-0.02,-0.03,0.03,0.02,-0.16,9.80
-0.01,-0.01,0.05,0.02,-0.17,9.80
-0.02,0.02,0.05,0.02,-0.17,9.80
-0.02,-0.01,0.06,0.03,-0.17,9.81
-0.03,0.01,0.04,0.02,-0.15,9.81
-0.04,-0.01,0.04,0.02,-0.16,9.81
-0.05,-0.01,0.04,0.03,-0.16,9.80
-0.04,-0.02,0.06,0.02,-0.17,9.80
-0.04,-0.01,0.08,0.02,-0.18,9.80
-0.02,0.01,0.09,0.02,-0.18,9.80
-0.01,0.01,0.07,0.03,-0.17,9.80
-0.00,0.02,0.05,0.02,-0.16,9.80
-0.01,0.00,0.05,0.01,-0.17,9.81
-0.02,0.02,0.04,0.00,-0.18,9.81
-0.03,-0.00,0.04,0.00,-0.18,9.80
-0.01,-0.01,0.04,0.01,-0.18,9.79
-0.00,0.02,0.03,0.00,-0.18,9.80
-0.02,0.01,0.01,-0.01,-0.19,9.79
0.01,-0.00,0.03,-0.01,-0.20,9.79
0.02,0.01,-0.00,0.01,-0.17,9.79
0.01,0.00,0.00,0.02,-0.17,9.79
-0.00,-0.01,0.01,0.03,-0.17,9.79
-0.01,-0.01,0.01,0.02,-0.18,9.79
0.00,-0.03,0.01,0.03,-0.19,9.79
0.11,-0.01,-0.00,0.04,-0.18,9.79
0.11,0.02,0.02,0.04,-0.16,9.80
0.08,0.03,0.04,0.05,-0.16,9.82
0.05,0.01,0.04,0.03,-0.18,9.81
0.21,-0.01,0.06,0.03,-0.14,9.78
0.29,-0.00,0.06,0.04,-0.04,9.77
0.27,0.02,0.07,0.05,0.02,9.77
0.08,0.01,0.07,0.04,-0.00,9.81
-0.03,-0.01,0.05,-0.00,-0.25,9.87
0.20,-0.06,0.06,-0.00,-0.23,9.84
0.37,-0.09,0.09,0.02,-0.07,9.79
0.33,-0.06,0.09,0.04,0.10,9.74
-0.04,0.04,0.07,0.02,0.05,9.78
-0.07,0.02,0.06,-0.00,-0.08,9.81
0.03,-0.01,0.04,0.00,-0.14,9.82
0.10,-0.02,0.03,0.04,-0.12,9.84
-0.10,0.08,0.06,-0.01,-0.11,9.91
-0.14,0.01,0.05,-0.05,-0.16,9.90
-0.04,-0.06,0.03,-0.02,-0.15,9.86
0.02,-0.03,-0.01,0.04,-0.06,9.80
-0.26,0.11,-0.04,0.06,-0.07,9.76
-0.26,0.12,-0.01,0.00,-0.20,9.80
-0.09,0.05,-0.01,-0.04,-0.25,9.82
0.14,-0.03,-0.02,0.00,-0.13,9.79
0.18,-0.04,-0.01,0.07,0.03,9.74
-0.21,0.08,-0.02,0.05,-0.02,9.75
-0.18,0.05,-0.01,-0.02,-0.18,9.79
0.01,-0.01,-0.01,-0.04,-0.23,9.80
0.18,-0.03,0.01,0.06,-0.01,9.77
0.02,0.03,0.03,0.06,0.02,9.78
-0.11,0.07,0.05,0.02,-0.05,9.84
-0.13,0.04,0.04,-0.02,-0.14,9.89
0.02,-0.10,0.07,0.04,-0.12,9.81
-0.00,-0.03,0.07,0.07,-0.07,9.79
-0.08,0.05,0.07,0.03,-0.08,9.82
-0.14,0.08,0.06,-0.03,-0.15,9.86
-0.01,-0.04,0.08,-0.03,-0.15,9.87
-0.01,-0.08,0.05,0.04,-0.08,9.82
-0.11,-0.04,0.06,0.07,-0.07,9.79
-0.17,0.01,0.10,0.02,-0.14,9.78
0.03,-0.05,0.08,-0.07,-0.22,9.83
0.09,-0.13,0.07,-0.03,-0.13,9.80
0.04,-0.13,0.05,0.03,-0.05,9.74
-0.08,-0.05,0.05,0.06,-0.07,9.74
-0.05,-0.01,0.04,-0.03,-0.21,9.79
0.08,-0.09,0.03,-0.04,-0.20,9.79
0.14,-0.08,0.02,0.02,-0.12,9.77
0.05,-0.01,0.01,0.05,-0.09,9.75
-0.06,0.06,-0.02,0.03,-0.14,9.75
-0.00,0.02,-0.03,-0.02,-0.25,9.83
0.12,-0.04,-0.03,0.01,-0.20,9.81
0.11,-0.05,-0.00,0.06,-0.11,9.79
-0.13,0.05,-0.01,0.04,-0.19,9.80
-0.07,0.02,-0.02,-0.00,-0.27,9.84
0.11,-0.05,-0.01,-0.00,-0.25,9.83
0.28,-0.11,0.01,0.04,-0.11,9.74
0.35,-0.02,0.05,0.13,0.17,9.61
0.34,0.10,0.07,0.10,0.20,9.66
0.23,0.11,0.09,0.04,0.14,9.78
0.03,0.05,0.09,0.01,-0.01,9.92
0.04,-0.08,0.08,-0.01,-0.28,9.95
0.18,-0.09,0.08,0.04,-0.22,9.95
0.18,-0.04,0.09,0.05,-0.08,9.96
-0.04,0.00,0.08,0.02,-0.01,9.98
-0.28,-0.08,0.06,-0.04,-0.22,9.86
0.06,-0.14,0.08,-0.01,-0.18,9.67
0.44,-0.10,0.11,0.07,0.06,9.55
0.51,0.05,0.12,0.11,0.31,9.55
0.08,0.16,0.09,-0.08,0.23,9.72
0.17,0.02,0.08,-0.10,0.05,9.74
0.46,-0.09,0.08,-0.02,0.03,9.71
0.63,-0.05,0.06,0.09,0.16,9.71
0.29,0.12,0.05,-0.02,0.17,9.90
0.19,-0.01,0.02,-0.12,0.05,10.00
0.30,-0.17,-0.01,-0.10,0.02,9.99
0.42,-0.28,0.01,0.01,0.09,9.87
0.81,-0.03,0.02,0.13,0.26,9.69
0.81,0.03,0.04,0.04,0.34,9.78
0.74,-0.03,0.03,-0.04,0.42,9.87
0.68,-0.13,0.04,-0.02,0.50,9.87
0.55,-0.09,0.07,0.12,0.54,9.67
0.53,0.03,0.08,0.11,0.49,9.68
0.63,0.09,0.08,0.04,0.41,9.78
0.77,0.02,0.11,-0.02,0.37,9.91
0.80,-0.10,0.08,0.02,0.44,9.98
0.62,-0.10,0.08,0.06,0.47,9.94
0.50,-0.04,0.09,0.05,0.48,9.90
0.50,-0.01,0.09,0.01,0.49,9.87
0.76,-0.09,0.10,-0.01,0.57,9.79
0.90,-0.14,0.09,0.02,0.65,9.75
0.98,-0.16,0.07,0.02,0.73,9.71
1.03,-0.13,0.07,0.03,0.78,9.71
0.95,-0.00,0.08,0.05,0.83,9.75
0.76,0.06,0.08,0.04,0.80,9.83
0.58,0.08,0.07,0.01,0.72,9.91
0.52,0.07,0.06,-0.03,0.65,9.95
0.66,-0.08,0.02,0.02,0.67,9.86
0.77,-0.05,0.04,0.04,0.73,9.80
0.87,-0.03,0.04,0.04,0.79,9.78
0.90,-0.02,0.06,0.04,0.87,9.79
0.80,-0.08,0.07,0.03,1.00,9.76
0.72,-0.11,0.07,0.05,1.02,9.73
0.59,-0.10,0.09,0.08,1.01,9.72
0.49,-0.03,0.08,0.07,0.96,9.72
0.62,-0.04,0.08,-0.03,0.82,9.76
0.80,-0.15,0.08,-0.04,0.87,9.77
0.90,-0.22,0.06,-0.01,1.01,9.76
0.71,-0.23,0.08,0.04,1.11,9.70
0.72,-0.19,0.08,0.03,1.08,9.70
0.85,-0.15,0.06,0.01,1.06,9.71
0.97,-0.14,0.06,0.00,1.10,9.75
1.03,-0.16,0.08,0.02,1.19,9.80
0.92,-0.15,0.06,0.04,1.28,9.83
0.92,-0.16,0.08,0.04,1.28,9.82
0.95,-0.18,0.12,0.04,1.29,9.84
0.94,-0.15,0.14,0.04,1.28,9.87
0.84,-0.19,0.12,0.03,1.24,9.88
0.97,-0.19,0.15,0.04,1.25,9.86
1.09,-0.23,0.16,0.04,1.30,9.82
1.45,-0.23,0.18,0.06,1.36,9.78
1.59,-0.21,0.20,0.05,1.42,9.77
1.70,-0.23,0.21,0.03,1.50,9.76
1.78,-0.25,0.21,0.07,1.55,9.78
1.79,-0.21,0.22,0.09,1.57,9.82
1.61,-0.12,0.23,0.05,1.62,9.91
1.54,-0.16,0.22,0.00,1.61,9.97
1.48,-0.22,0.19,-0.01,1.60,10.02
1.38,-0.25,0.16,-0.03,1.57,10.02
1.26,-0.32,0.09,-0.06,1.54,9.93
1.38,-0.43,0.04,-0.07,1.54,9.83
1.62,-0.54,-0.00,-0.07,1.55,9.80
1.83,-0.58,-0.04,-0.02,1.62,9.80
1.96,-0.49,-0.09,-0.04,1.77,9.81
1.94,-0.44,-0.12,-0.03,1.86,9.85
1.80,-0.36,-0.15,0.01,1.90,9.92
1.47,-0.26,-0.18,0.03,1.89,9.98
0.69,-0.16,-0.18,0.02,1.64,9.97
0.69,-0.10,-0.20,0.05,1.51,9.91
0.92,-0.03,-0.19,0.06,1.51,9.89
1.05,0.01,-0.18,0.10,1.60,9.94
0.68,-0.06,-0.14,0.12,1.66,10.10
0.56,-0.21,-0.12,0.08,1.70,10.06
0.64,-0.35,-0.07,0.08,1.77,10.03
0.68,-0.51,-0.00,0.16,1.83,10.00
0.48,-0.50,0.11,0.20,1.85,9.87
0.32,-0.44,0.15,0.15,1.84,9.68
0.37,-0.38,0.17,0.14,1.80,9.58
0.42,-0.29,0.20,0.17,1.77,9.60
0.35,-0.18,0.25,0.23,1.76,9.66
0.32,-0.22,0.31,0.00,1.56,9.64
0.52,-0.28,0.28,-0.03,1.51,9.63
0.86,-0.32,0.24,-0.03,1.67,9.64
0.65,-0.35,0.19,0.04,1.87,9.66
0.50,-0.27,0.18,0.09,1.78,9.63
0.64,-0.08,0.15,0.02,1.71,9.56
0.88,0.03,0.12,-0.10,1.79,9.52
0.74,0.05,-0.04,-0.07,1.94,9.74
0.40,0.14,-0.11,0.01,1.87,9.96
0.03,0.22,-0.18,-0.05,1.74,10.05
-0.06,0.06,-0.21,-0.24,1.62,9.93
0.17,-0.29,-0.24,-0.24,1.57,9.96
0.41,-0.54,-0.33,-0.00,1.77,10.02
0.15,-0.58,-0.36,-0.02,1.81,9.93
-0.07,-0.67,-0.36,0.04,1.72,9.94
0.28,-0.66,-0.28,0.06,1.70,9.85
0.27,-0.77,-0.24,0.12,1.79,9.80
0.06,-0.77,-0.17,0.27,1.74,9.89
-0.00,-0.63,-0.14,0.24,1.62,9.87
0.45,-0.53,0.01,0.15,1.67,9.72
0.43,-0.47,0.06,0.16,1.68,9.70
0.24,-0.30,0.11,0.24,1.61,9.69
0.26,-0.11,0.16,0.29,1.51,9.68
1.00,0.21,0.28,0.14,1.67,9.56
1.03,0.27,0.33,0.23,1.87,9.73
0.69,0.33,0.34,0.23,1.91,9.77
0.38,0.33,0.34,0.23,1.74,9.66
1.12,0.32,0.35,-0.04,1.56,9.36
1.50,0.27,0.28,-0.02,1.80,9.55
1.08,0.19,0.21,0.11,1.99,9.96
0.20,0.04,0.12,-0.07,1.83,9.98
0.36,-0.88,-0.09,-0.22,1.17,9.66
1.29,-1.33,-0.15,-0.32,1.28,9.37
1.89,-1.67,-0.24,-0.47,1.63,9.10
1.87,-1.86,-0.41,-0.27,1.95,9.11
1.25,-1.91,-0.55,-0.21,1.76,8.75
1.75,-2.04,-0.65,-0.31,1.66,8.42
2.78,-2.25,-0.65,-0.25,1.74,8.28
3.82,-2.24,-0.72,-0.22,1.94,8.22
4.28,-1.96,-0.59,0.04,2.20,7.90
4.32,-1.40,-0.56,0.25,1.99,7.81
4.81,-0.47,-0.48,0.51,1.80,7.66
5.64,0.68,-0.35,0.69,1.84,7.83
6.24,2.64,-0.01,0.58,2.30,8.61
5.64,3.18,0.12,0.48,2.25,9.12
5.14,3.50,0.18,0.36,2.05,9.29
5.25,3.59,0.27,0.35,1.68,9.28
6.51,3.63,0.35,0.75,1.64,9.27
6.81,3.89,0.47,0.83,1.93,9.59
5.83,4.04,0.48,0.81,2.03,10.05
4.94,3.96,0.37,0.63,1.91,10.38
5.39,2.13,0.31,0.19,1.62,10.18
5.96,1.38,0.29,0.68,1.72,10.32
6.01,1.28,0.39,0.95,1.93,10.14
5.62,1.68,0.40,0.95,1.99,10.17
4.61,2.60,0.37,0.46,2.06,10.67
4.42,2.36,0.36,-0.15,1.97,10.93
4.02,2.05,0.18,-0.32,1.76,11.50
3.42,1.95,-0.02,-0.16,1.56,11.76
2.51,1.88,-0.50,-0.98,1.28,11.62
2.34,1.92,-0.67,-0.70,1.32,11.85
2.08,2.02,-0.87,-0.19,1.41,12.58
0.49,0.16,-0.51,-2.47,2.23,11.16
-2.28,-1.07,-1.67,1.76,-0.29,14.51
-1.84,2.70,-1.61,0.91,-0.24,12.61
-0.10,3.79,-1.57,-1.17,0.92,11.18
-0.97,2.58,-1.64,-0.85,1.69,12.71
-3.99,1.18,-1.59,-0.35,1.40,13.27
-4.62,0.52,-1.52,-0.61,1.08,12.75
-5.55,-0.69,-1.31,-0.64,0.90,12.36
-5.36,-1.27,-1.17,-0.30,1.02,12.21
-6.38,-2.45,-0.66,0.08,1.16,12.01
-6.59,-3.21,-0.31,-0.03,1.24,11.82
-7.08,-4.02,0.03,-0.04,1.31,11.61
-7.02,-4.59,0.28,-0.20,1.37,11.23
-7.82,-5.33,0.69,-0.16,1.13,10.28
-7.24,-5.54,0.86,-0.04,1.06,9.61
-6.20,-5.53,1.09,0.24,1.11,9.13
-5.00,-4.99,1.30,0.27,1.29,8.75
-5.02,-2.98,1.31,0.23,1.51,8.33
-5.16,-1.81,1.29,0.06,1.46,8.34
-5.20,-0.96,1.13,-0.10,1.38,8.49
-5.03,-0.66,1.01,-0.19,1.32,8.68
-4.56,-0.92,0.62,-0.21,0.98,8.71
-3.92,-0.90,0.40,-0.27,0.91,8.54
-3.25,-0.97,0.07,-0.32,0.99,8.21
-2.56,-1.11,-0.28,-0.15,1.20,8.13
-2.19,-1.04,-0.74,0.37,1.41,8.22
-2.21,-0.82,-0.92,0.38,1.40,8.26
-2.33,-0.70,-1.10,0.20,1.27,8.24
-2.26,-0.76,-1.30,0.19,1.21,8.32
-1.34,-0.93,-1.51,0.24,1.15,8.55
-1.23,-1.15,-1.54,0.50,1.13,8.56
-0.96,-1.04,-1.47,0.75,1.08,8.61
-0.97,-0.71,-1.40,0.86,1.03,8.45
-0.49,0.29,-1.11,0.72,0.92,8.33
-0.20,0.74,-0.98,0.74,0.88,8.42
0.23,1.18,-0.82,0.76,0.93,8.61
0.36,1.41,-0.68,0.63,0.87,8.63
0.47,1.60,-0.55,0.65,0.73,8.68
1.48,2.29,-0.20,0.67,0.88,8.98
1.71,2.29,-0.05,0.66,1.18,9.17
1.74,2.32,0.16,0.70,1.22,9.50
1.41,2.69,0.40,0.46,1.16,9.62
1.45,2.74,0.45,0.27,1.10,9.80
1.37,2.64,0.43,0.20,1.06,9.97
1.65,2.51,0.50,0.28,1.02,10.17
1.65,2.04,0.56,0.19,1.02,10.24
1.67,1.98,0.57,0.10,1.01,10.19
1.55,2.06,0.47,-0.09,1.00,10.12
1.57,2.12,0.38,-0.10,1.03,10.16
1.76,2.07,0.32,-0.16,1.05,10.34
1.40,1.45,0.10,-0.27,1.10,10.53
1.34,1.13,0.03,-0.46,1.17,10.43
1.09,0.83,-0.11,-0.54,1.25,10.38
0.55,0.42,-0.21,-0.22,1.21,10.50
0.10,0.36,-0.25,-0.33,1.18,10.35
-0.30,0.30,-0.25,-0.33,1.05,10.27
-0.23,0.44,-0.29,-0.43,0.92,10.19
-0.02,0.46,-0.51,-0.57,0.95,10.09
-0.14,0.30,-0.60,-0.34,0.90,10.18
-0.31,0.19,-0.63,-0.26,0.82,10.06
-0.18,0.06,-0.63,-0.35,0.78,9.83
0.17,-0.04,-0.62,-0.30,0.87,9.87
0.22,-0.37,-0.54,-0.40,1.23,9.75
0.02,-0.69,-0.53,-0.19,1.18,9.72
-0.07,-0.79,-0.52,0.13,1.05,9.75
0.32,-0.55,-0.37,-0.16,1.13,9.43
0.21,-0.59,-0.32,-0.11,1.18,9.63
-0.01,-0.59,-0.27,-0.00,1.17,9.89
-0.21,-0.69,-0.26,-0.06,1.10,9.84
-0.25,-1.17,-0.17,0.00,0.88,9.61
-0.09,-1.17,-0.14,-0.00,0.95,9.46
-0.02,-1.18,-0.14,-0.06,1.03,9.38
-0.04,-1.37,-0.17,0.03,1.05,9.44
-0.02,-1.28,-0.09,0.23,1.03,9.48
0.12,-1.27,-0.06,0.07,1.06,9.31
0.49,-1.21,-0.06,0.14,1.06,9.39
0.60,-1.02,-0.08,0.20,1.08,9.61
0.14,-0.60,-0.21,0.14,1.18,10.16
-0.19,-0.77,-0.25,0.14,1.02,10.22
0.02,-0.92,-0.14,0.13,0.87,10.28
0.11,-0.82,-0.13,0.14,0.92,10.43
-0.51,-0.83,-0.17,0.02,1.12,10.50
-0.74,-0.89,-0.26,0.06,0.98,10.43
-0.62,-0.96,-0.27,0.16,0.87,10.19
-0.40,-0.97,-0.25,0.26,0.87,10.13
0.13,-0.81,-0.26,0.11,1.06,9.68
0.28,-0.80,-0.28,0.08,1.15,9.73
0.24,-0.64,-0.32,0.06,1.16,9.59
0.12,-0.51,-0.40,0.30,1.03,9.55
0.34,0.28,-0.44,0.27,0.92,9.50
0.41,0.50,-0.43,0.22,0.99,9.62
0.50,0.61,-0.40,0.20,1.06,9.90
0.19,0.61,-0.41,0.25,1.08,10.10
-0.12,0.26,-0.42,0.09,0.85,9.99
0.04,0.06,-0.46,0.08,0.79,9.83
0.59,-0.10,-0.40,0.15,0.95,9.74
0.79,-0.28,-0.36,0.15,1.18,9.74
0.19,-0.64,-0.26,0.21,1.30,9.66
0.03,-0.77,-0.26,0.15,1.01,9.55
0.37,-0.73,-0.24,0.17,0.88,9.50
0.73,-0.58,-0.14,0.29,0.95,9.65
0.37,-0.29,-0.04,-0.04,1.26,9.86
-0.08,-0.35,-0.03,-0.04,1.16,10.01
-0.38,-0.37,-0.08,0.12,0.93,10.05
-0.22,-0.15,-0.05,0.15,0.86,9.93
-0.10,0.14,0.05,0.21,1.23,9.81
-0.47,0.48,0.05,0.20,1.32,9.84
-0.90,0.75,0.06,0.08,1.20,9.72
-1.15,0.85,0.01,0.10,1.03,9.78
-0.66,0.88,0.01,0.08,1.10,9.93
-0.89,0.56,-0.02,0.06,1.18,9.95
-1.14,0.43,-0.04,0.08,1.11,9.89
-1.36,0.40,-0.04,0.23,0.96,9.78
-1.23,0.57,-0.13,0.08,0.84,9.74
-1.12,0.49,-0.18,0.15,0.87,9.84
-0.98,0.41,-0.23,0.13,0.91,9.79
-0.78,0.39,-0.28,0.14,1.01,9.68
-0.73,0.66,-0.32,0.16,1.14,9.69
-0.96,0.73,-0.34,0.25,1.05,9.79
-0.91,0.86,-0.33,0.23,0.85,9.86
-0.65,0.92,-0.38,0.12,0.80,9.84
-0.24,0.77,-0.45,-0.23,1.15,9.99
-0.51,0.25,-0.48,-0.26,1.17,9.79
-0.33,-0.22,-0.50,-0.04,0.95,9.76
-0.09,-0.21,-0.52,0.32,0.88,9.87
0.01,-0.06,-0.38,-0.20,1.07,9.48
-0.07,-0.28,-0.40,-0.02,1.01,9.80
-0.02,-0.09,-0.41,0.14,1.03,10.13
0.11,0.10,-0.47,-0.19,1.29,10.07
-0.28,-0.78,-0.30,-0.14,1.32,10.02
-0.58,-0.91,-0.24,0.21,1.05,10.03
-0.53,-0.56,-0.18,0.26,0.86,9.81
-0.31,-0.33,-0.20,-0.14,0.90,9.44
0.06,-0.09,-0.26,-0.02,1.08,9.90
-0.25,-0.31,-0.25,-0.12,1.08,9.81
-0.19,-0.51,-0.24,-0.06,0.86,9.79
0.11,-0.69,-0.17,-0.09,0.67,9.47
1.48,-0.77,-0.31,0.08,1.10,9.44
1.36,-0.64,-0.31,0.15,1.34,9.47
0.91,-0.48,-0.34,0.00,1.42,9.50
0.30,-0.37,-0.33,0.07,1.25,9.74
0.39,-0.52,-0.31,-0.22,0.98,10.00
0.70,-0.96,-0.40,-0.36,1.01,10.01
0.85,-1.24,-0.55,-0.05,1.07,10.20
0.32,-1.24,-0.58,-0.06,1.18,9.81
0.09,-1.43,-0.58,0.26,1.05,9.83
0.13,-1.11,-0.51,0.57,0.94,9.98
0.30,-0.58,-0.49,0.08,1.09,9.68
0.29,-0.41,-0.54,-0.04,1.26,9.71
0.01,-0.26,-0.60,0.27,1.17,10.22
-0.11,-0.14,-0.54,0.32,1.06,10.19
-0.00,-0.14,-0.48,0.43,1.12,10.22
-0.03,0.03,-0.37,0.33,1.14,10.06
-0.37,0.05,-0.38,0.37,0.89,9.84
0.00,0.19,-0.44,0.47,0.79,9.99
0.31,0.31,-0.42,0.13,0.99,9.81
0.38,0.11,-0.44,0.06,1.19,9.87
-0.55,-0.36,-0.34,0.30,1.07,10.29
-0.70,-0.41,-0.31,0.24,0.84,10.22
-0.36,-0.60,-0.29,0.02,0.83,10.10
0.10,-0.77,-0.33,-0.03,0.99,10.13
0.16,-0.92,-0.35,-0.02,1.31,10.14
-0.76,-1.28,-0.37,0.04,1.22,9.83
-0.66,-1.40,-0.32,0.25,0.94,9.60
-0.11,-1.19,-0.26,0.20,0.90,9.30
0.25,-0.65,-0.31,-0.03,1.11,9.00
0.15,-0.37,-0.40,0.10,1.07,9.09
0.41,-0.08,-0.42,-0.01,1.06,9.15
0.57,-0.12,-0.44,0.01,1.10,9.09
0.82,-0.10,-0.41,0.07,0.96,9.06
1.08,0.11,-0.43,0.13,0.96,8.94
1.56,0.33,-0.46,-0.02,1.06,8.93
1.73,0.36,-0.54,0.11,1.14,9.01
1.83,0.42,-0.60,0.26,1.25,9.24
1.41,0.70,-0.54,0.16,1.22,9.49
1.41,0.38,-0.49,-0.01,1.05,9.46
1.86,0.23,-0.51,0.33,0.94,9.84
1.86,0.32,-0.48,-0.09,1.41,9.93
1.32,0.00,-0.49,-0.01,1.35,10.02
0.96,-0.14,-0.49,0.45,1.10,10.35
1.01,-0.01,-0.44,0.34,0.99,10.29
1.30,-0.36,-0.41,0.16,1.24,10.19
1.20,-0.35,-0.32,0.19,1.30,10.34
0.86,-0.17,-0.28,0.14,1.36,10.40
0.19,-0.14,-0.33,0.21,1.24,10.52
0.23,0.02,-0.41,-0.09,0.83,10.06
0.91,0.07,-0.37,0.14,0.97,10.06
1.16,0.29,-0.30,0.47,1.18,10.33
0.93,0.74,-0.29,0.48,1.36,10.36
-0.21,1.53,-0.37,0.10,1.01,10.18
0.16,1.75,-0.38,0.24,0.94,10.22
0.64,1.84,-0.39,0.37,1.22,10.41
0.60,1.84,-0.41,0.26,1.68,10.48
-1.31,1.58,-0.33,0.13,2.03,10.40
-3.14,1.49,-0.39,-0.12,1.57,10.05
-4.17,1.09,-0.62,-0.11,0.87,9.73
-3.80,0.42,-0.73,0.07,0.38,9.50
-0.56,-0.58,-0.64,0.05,0.75,8.95
0.48,-1.07,-0.45,0.01,1.46,8.83
0.07,-1.27,-0.33,0.27,1.66,9.10
-0.99,-0.69,-0.34,0.67,1.39,9.42
-1.52,1.16,-0.56,-0.03,0.57,9.16
-0.46,1.33,-0.68,-0.19,0.63,9.46
0.85,1.18,-0.63,-0.29,1.10,9.89
0.91,0.64,-0.58,-0.09,1.52,10.20
-0.68,0.67,-0.46,0.23,1.26,9.99
-0.91,1.08,-0.52,0.11,0.94,9.68
-0.52,1.52,-0.60,0.13,0.83,9.85
-0.13,1.77,-0.67,-0.08,0.93,10.08
0.14,0.82,-0.73,0.05,1.43,10.77
-0.33,0.17,-0.60,0.15,1.59,10.65
-0.73,-0.21,-0.54,0.05,1.47,10.22
-0.92,-0.29,-0.55,0.03,1.09,9.87
-0.38,0.14,-0.72,-0.01,1.10,9.84
-0.26,0.19,-0.73,-0.03,1.39,10.14
-0.83,-0.29,-0.72,-0.07,1.47,10.31
-1.51,-0.79,-0.69,-0.01,1.33,10.35
-1.47,-1.22,-0.72,-0.15,0.75,9.50
-0.65,-1.22,-0.75,0.02,0.83,9.38
-0.16,-1.00,-0.82,0.19,1.20,9.55
-0.26,-0.74,-0.83,0.03,1.49,9.58
-1.53,-0.58,-0.92,0.16,1.15,9.58
-1.18,-0.33,-0.87,-0.03,0.81,9.37
-0.43,-0.27,-0.90,-0.03,0.76,9.39
0.16,-0.27,-0.93,0.20,1.04,9.64
0.02,0.08,-0.97,0.05,1.52,9.80
-0.53,0.17,-1.00,0.10,1.37,9.83
-0.92,0.21,-1.03,0.06,1.02,9.81
-0.59,0.32,-1.03,0.15,0.77,9.86
0.26,0.21,-1.05,0.08,1.14,10.05
0.06,0.03,-1.06,0.08,1.49,10.03
-0.43,-0.02,-1.07,0.16,1.51,10.03
-0.85,-0.04,-1.03,0.21,1.34,9.82
-0.71,0.02,-1.00,0.41,1.00,9.95
-0.74,0.11,-0.94,0.35,1.15,9.97
-0.80,0.17,-0.93,0.22,1.34,10.11
-1.19,0.10,-0.93,0.27,1.37,10.27
-1.67,0.06,-0.89,0.29,1.07,9.97
-1.58,0.15,-0.86,0.39,0.87,9.78
-1.32,0.30,-0.82,0.36,0.86,9.50
-0.81,0.35,-0.80,0.26,0.96,9.10
0.43,-0.25,-0.76,0.19,1.25,8.06
1.09,-0.43,-0.68,0.52,1.24,7.77
1.14,0.06,-0.69,0.39,1.11,7.56
0.50,2.22,-0.96,1.13,0.77,8.81
1.17,3.20,-0.88,0.86,0.98,10.00
1.67,2.85,-0.71,-0.35,1.56,10.81
1.61,1.41,-0.67,-0.89,1.88,12.10
0.09,-0.28,-0.79,-0.75,1.77,12.93
-2.64,-2.28,-0.92,-0.38,0.83,10.59
-1.59,-2.69,-0.85,0.16,0.52,9.17
0.21,-1.84,-0.75,0.95,0.65,8.83
1.04,-0.18,-0.64,1.14,1.34,8.70
-1.84,2.64,-0.74,0.11,1.75,9.50
-2.88,2.82,-0.74,-0.45,1.25,9.86
-2.20,1.87,-0.77,-0.57,0.77,10.38
-0.89,0.46,-0.79,-0.27,0.69,10.57
-0.09,-1.02,-0.76,-0.05,1.15,9.57
-0.54,-0.93,-0.84,0.18,0.99,9.13
-0.52,-0.44,-0.91,0.31,0.89,8.97
0.08,0.12,-0.91,0.31,1.03,9.18
0.19,0.13,-0.87,0.17,1.26,9.61
-0.42,-0.81,-0.87,-0.38,0.88,9.83
0.26,-1.22,-0.98,-0.43,0.68,9.62
1.38,-1.47,-1.06,-0.12,0.95,9.74
1.25,-1.57,-1.09,0.30,1.67,9.89
0.47,-1.12,-0.94,0.34,1.76,9.94
-0.31,-0.43,-0.80,0.27,1.62,9.89
-1.15,0.74,-0.90,0.05,0.94,10.25
-0.88,0.94,-0.95,-0.04,0.74,10.32
-0.39,0.78,-0.99,0.04,0.80,10.32
-0.18,0.54,-0.97,0.21,0.99,10.29
-0.25,0.62,-0.95,0.30,1.14,10.16
-0.51,0.77,-0.91,0.30,1.09,9.93
-0.26,0.92,-0.94,0.26,0.77,9.82
0.38,0.79,-0.95,0.15,0.94,9.82
0.72,0.39,-0.99,0.18,1.22,9.86
0.17,-0.18,-0.96,0.21,1.35,9.67
-0.10,-0.29,-0.96,0.29,1.05,9.49
0.14,-0.18,-0.95,0.42,0.81,9.51
0.62,0.00,-0.89,0.27,0.87,9.56
0.15,-0.18,-0.95,0.03,1.36,10.08
-0.62,-0.37,-0.97,-0.03,1.18,10.17
-1.08,-0.64,-0.97,-0.01,0.82,10.13
-0.80,-0.87,-0.97,0.04,0.63,10.01
0.24,-1.34,-0.88,0.08,1.12,9.57
0.03,-1.28,-0.89,0.17,1.41,9.44
-0.43,-1.00,-0.84,0.12,1.44,9.22
-0.63,-0.61,-0.84,0.23,1.22,9.21
-0.12,0.01,-0.71,0.10,1.00,9.30
-0.02,0.07,-0.72,0.04,1.00,9.43
-0.20,0.23,-0.73,0.17,0.89,9.57
-0.40,0.43,-0.73,0.15,0.71,9.57
-0.26,0.52,-0.84,0.08,0.47,9.66
0.04,0.37,-0.89,-0.02,0.41,9.75
0.37,-0.03,-0.94,-0.11,0.48,9.76
0.76,-0.44,-0.98,-0.12,0.64,9.79
1.00,-1.25,-0.98,0.12,0.85,9.54
1.32,-1.34,-1.02,0.18,0.95,9.44
1.68,-1.16,-1.00,0.18,1.13,9.38
1.60,-0.83,-0.99,0.37,1.21,9.58
0.64,0.11,-0.95,0.11,1.08,10.13
0.44,0.28,-0.93,0.18,0.79,10.57
0.46,0.48,-0.94,0.21,0.69,10.98
0.44,0.62,-0.95,-0.03,0.86,10.87
-0.40,0.22,-1.10,-0.09,0.79,10.30
-0.30,0.12,-1.12,0.18,0.61,9.92
0.06,0.01,-1.10,0.37,0.61,9.56
0.51,0.01,-1.07,0.46,0.85,9.27
-0.08,0.97,-1.04,0.47,1.24,9.16
-0.67,1.49,-1.09,0.26,1.21,9.26
-1.01,1.63,-1.11,0.35,1.04,9.80
-0.92,1.49,-1.11,0.40,0.95,10.38
-1.39,0.50,-0.97,0.09,0.88,10.81
-1.98,0.12,-0.98,0.08,0.70,10.59
-2.16,-0.04,-1.04,0.10,0.43,10.28
-1.75,-0.04,-1.09,0.21,0.38,10.14
-1.62,-0.15,-1.05,0.25,0.83,10.12
-1.98,-0.35,-1.01,0.20,0.82,9.91
-1.94,-0.40,-0.92,0.15,0.64,9.64
-1.50,-0.41,-0.89,0.13,0.56,9.31
-0.29,-0.21,-0.89,0.23,0.77,8.85
-0.04,0.11,-0.88,0.36,0.85,8.91
-0.05,0.59,-0.91,0.28,0.89,8.98
-0.15,0.91,-0.91,0.14,0.85,9.12
-0.23,0.83,-0.94,0.04,0.45,10.02
0.09,0.61,-0.95,-0.14,0.41,10.33
0.47,-0.05,-0.92,-0.30,0.50,10.42
0.81,-0.67,-0.96,-0.24,0.65,10.48
0.57,-0.79,-1.03,0.16,0.87,10.08
0.38,-0.46,-1.07,0.16,0.83,9.91
0.32,-0.26,-1.03,0.15,0.78,9.88
0.73,-0.21,-0.97,0.07,0.89,9.97
0.29,-0.39,-1.04,-0.06,1.15,10.20
-0.38,-0.47,-1.09,-0.09,0.87,10.15
-0.50,-0.47,-1.12,0.03,0.52,10.13
-0.34,-0.47,-1.13,0.02,0.37,10.13
-0.81,-0.40,-1.13,0.13,0.53,10.44
-1.45,-0.39,-1.16,-0.02,0.40,10.35
-1.63,-0.44,-1.27,-0.03,0.08,10.01
-1.29,-0.51,-1.33,0.09,-0.04,9.68
0.08,-0.31,-1.29,0.32,0.48,9.16
0.18,-0.12,-1.27,0.49,0.79,9.11
-0.04,0.30,-1.24,0.56,0.91,8.89
-0.13,0.74,-1.21,0.57,0.85,8.70
0.12,1.50,-1.16,0.51,0.64,9.00
0.04,1.66,-1.14,0.40,0.65,9.23
-0.19,1.49,-1.14,0.21,0.56,9.48
-0.56,1.07,-1.14,0.18,0.35,9.69
-0.42,0.31,-1.12,0.14,0.03,9.76
-0.42,-0.11,-1.12,0.14,0.12,9.59
-0.41,-0.33,-1.08,0.24,0.21,9.47
-0.42,-0.34,-1.04,0.34,0.35,9.28
-0.28,0.16,-0.93,0.40,0.67,9.19
-0.39,0.42,-0.91,0.32,0.79,9.30
-0.59,0.65,-0.86,0.29,0.82,9.63
-1.19,0.82,-0.73,0.22,0.59,10.20
-1.36,0.86,-0.67,0.11,0.39,10.47
-1.74,0.96,-0.68,0.16,0.14,10.72
-2.12,1.15,-0.73,0.10,-0.02,10.85
-2.32,1.12,-0.73,-0.00,-0.16,10.90
-2.30,0.80,-0.78,-0.04,-0.38,10.93
-2.25,0.59,-0.79,-0.03,-0.32,10.67
-2.03,0.46,-0.77,-0.04,-0.15,10.35
-1.70,0.43,-0.78,0.07,-0.00,10.14
-1.12,0.25,-0.77,0.00,0.38,9.84
-1.08,0.14,-0.77,-0.01,0.46,9.85
-1.41,0.12,-0.74,0.06,0.35,9.80
-1.53,0.19,-0.74,0.09,0.14,9.75
-1.22,0.17,-0.70,0.01,-0.17,9.73
-1.05,0.14,-0.69,-0.03,-0.24,9.85
-0.99,0.11,-0.73,-0.03,-0.28,9.92
-1.13,0.03,-0.77,-0.16,-0.32,9.86
-0.97,-0.36,-0.82,-0.04,-0.32,9.54
-0.52,-0.45,-0.76,0.08,-0.26,9.44
-0.23,-0.37,-0.76,0.16,-0.12,9.33
-0.09,-0.22,-0.74,0.21,0.10,9.24
-0.38,0.25,-0.70,0.20,0.34,9.42
-0.49,0.44,-0.67,0.08,0.33,9.49
-0.60,0.37,-0.68,0.12,0.21,9.63
-0.74,0.32,-0.66,0.26,0.06,9.76
-0.98,0.40,-0.54,0.15,-0.23,9.54
-0.98,0.47,-0.55,0.22,-0.37,9.59
-0.76,0.62,-0.51,0.12,-0.41,9.55
-0.65,0.57,-0.54,0.04,-0.34,9.38
-0.21,0.27,-0.43,0.18,-0.33,9.24
-0.13,0.34,-0.40,0.18,-0.36,9.24
-0.01,0.39,-0.36,0.14,-0.36,9.34
0.13,0.27,-0.37,-0.02,-0.40,9.43
0.87,-0.10,-0.34,0.13,-0.37,9.72
1.25,-0.18,-0.27,0.05,-0.14,9.75
1.63,-0.34,-0.24,-0.11,0.21,9.52
1.62,-0.52,-0.25,0.08,0.34,9.63
1.17,-0.06,-0.16,0.17,0.10,9.87
1.04,0.07,-0.15,0.06,-0.18,10.19
1.07,0.18,-0.15,0.07,-0.32,10.61
1.20,0.21,-0.13,-0.17,-0.23,10.73
0.87,-0.55,-0.15,-0.18,-0.09,10.73
0.60,-0.60,-0.15,0.18,-0.13,10.67
0.29,-0.26,-0.12,0.30,-0.18,10.48
0.04,0.09,-0.08,0.01,-0.26,10.22
0.15,0.05,-0.07,-0.16,-0.47,10.41
0.37,-0.11,-0.05,-0.10,-0.29,10.12
0.62,-0.21,-0.07,0.05,-0.12,9.70
0.91,-0.15,-0.03,0.15,-0.02,9.26
1.43,0.55,-0.07,0.24,0.01,8.98
1.44,0.89,-0.08,0.19,0.00,9.08
1.23,1.07,-0.11,0.13,-0.09,9.26
1.23,1.03,-0.10,0.12,-0.25,9.49
1.43,0.86,-0.07,0.08,-0.39,9.74
1.78,0.37,-0.17,-0.15,-0.30,9.71
1.83,0.13,-0.25,-0.06,-0.22,9.67
1.74,0.01,-0.29,0.08,-0.13,9.63
1.68,-0.10,-0.23,0.21,-0.10,9.54
1.45,-0.04,-0.15,0.28,-0.17,9.56
1.33,0.18,-0.15,0.10,-0.28,9.47
1.62,0.38,-0.17,0.06,-0.25,9.50
2.11,0.65,-0.12,0.08,0.38,9.73
1.55,0.68,-0.07,0.21,0.47,9.88
0.85,0.95,-0.01,0.35,0.37,10.08
0.17,1.22,0.08,0.18,0.04,10.12
0.33,1.02,0.08,-0.17,-0.59,10.30
0.85,0.66,0.07,-0.07,-0.30,10.59
0.70,0.44,0.12,-0.06,0.14,10.66
-0.30,0.16,0.18,-0.03,0.21,10.53
-0.81,-0.06,0.24,-0.04,-0.60,10.16
-0.21,-0.09,0.26,-0.05,-0.56,10.11
0.28,-0.09,0.34,-0.09,-0.21,10.14
0.11,-0.29,0.37,-0.04,0.10,10.20
-0.40,-0.39,0.43,-0.13,0.02,9.89
-0.27,-0.36,0.43,-0.12,-0.23,9.72
0.29,-0.25,0.43,-0.14,-0.28,9.78
0.57,-0.16,0.48,-0.11,-0.07,9.99
-0.28,-0.33,0.56,-0.26,-0.07,10.09
-0.42,-0.44,0.54,-0.23,-0.40,9.94
0.16,-0.44,0.54,-0.19,-0.51,9.76
0.59,-0.38,0.55,-0.11,-0.37,9.73
0.24,0.06,0.65,0.05,0.01,9.69
-0.01,0.29,0.65,0.09,-0.15,9.62
0.14,0.60,0.64,0.09,-0.29,9.56
0.61,0.92,0.63,-0.06,-0.17,9.54
0.45,0.92,0.61,0.07,0.32,9.92
-0.18,0.86,0.62,0.11,0.20,9.98
-0.60,0.83,0.59,0.10,-0.14,9.84
-0.32,0.82,0.60,0.03,-0.36,9.73
0.11,0.72,0.59,0.08,0.12,10.16
-0.68,0.60,0.60,0.05,0.22,10.33
-1.67,0.33,0.58,-0.01,-0.14,10.23
-1.75,0.22,0.58,0.12,-0.59,10.05
-0.39,0.46,0.64,0.01,-0.23,9.62
-0.53,0.42,0.64,-0.00,0.13,9.74
-1.13,0.38,0.60,-0.01,0.14,9.88
-1.48,0.28,0.61,0.01,-0.16,9.77
-0.55,0.31,0.68,0.09,-0.42,9.33
0.20,0.57,0.72,0.11,-0.24,9.19
0.43,0.90,0.73,0.15,0.03,9.34
0.10,1.34,0.72,0.16,0.11,9.55
-0.10,1.54,0.68,-0.17,-0.40,9.71
0.22,1.41,0.62,-0.09,-0.46,9.99
0.43,1.31,0.59,-0.12,-0.28,10.07
0.38,1.01,0.64,-0.19,-0.04,9.96
-0.13,0.58,0.61,-0.17,0.08,9.87
-0.48,0.47,0.53,-0.16,-0.07,9.79
-0.37,0.35,0.47,-0.27,-0.22,9.79
-0.22,0.09,0.44,-0.39,-0.17,9.85
-0.47,-0.40,0.48,-0.11,0.30,10.02
-0.98,-0.48,0.54,-0.03,0.33,9.92
-1.62,-0.26,0.55,-0.00,0.06,9.83
-1.69,0.14,0.53,-0.14,-0.32,9.72
-0.90,0.51,0.45,-0.15,-0.23,9.81
-1.08,0.65,0.47,-0.01,0.01,9.85
-1.73,0.71,0.53,0.02,-0.06,9.81
-2.00,0.71,0.53,-0.12,-0.34,9.65
-0.93,0.57,0.47,-0.07,-0.39,9.47
-0.64,0.58,0.49,-0.03,-0.02,9.49
-1.00,0.59,0.47,0.02,0.10,9.59
-1.42,0.59,0.47,0.13,-0.11,9.61
-0.43,0.84,0.62,0.06,-0.45,9.49
0.09,0.99,0.60,0.12,-0.23,9.55
0.11,1.18,0.63,0.11,0.03,9.65
-0.05,1.36,0.62,0.05,0.02,9.77
0.02,1.02,0.51,-0.17,-0.27,9.81
0.17,0.65,0.52,-0.11,-0.26,10.02
0.06,0.34,0.54,-0.09,-0.14,10.17
-0.27,0.06,0.53,-0.09,-0.09,10.19
-0.52,-0.46,0.59,-0.21,-0.13,10.19
-0.53,-0.60,0.55,-0.25,-0.01,10.24
-0.71,-0.72,0.53,-0.17,0.13,10.28
-1.16,-0.76,0.52,-0.12,0.17,10.16
-1.49,-0.61,0.55,-0.08,-0.34,9.73
-1.05,-0.31,0.62,0.03,-0.34,9.90
-0.91,0.07,0.57,-0.16,-0.01,9.98
-1.98,0.11,0.52,-0.29,-0.08,9.78
-1.90,0.27,0.43,-0.21,-0.31,9.68
-1.72,0.45,0.43,-0.12,-0.35,9.54
-1.56,0.57,0.44,-0.14,-0.28,9.50
-1.74,0.46,0.47,-0.13,-0.25,9.50
-1.52,0.30,0.47,-0.10,-0.36,9.37
-1.16,0.38,0.49,-0.16,-0.23,9.25
-1.14,0.38,0.47,-0.17,-0.09,9.20
-1.28,0.34,0.40,-0.05,-0.07,9.19
-1.01,0.20,0.38,-0.10,-0.42,9.07
-0.43,0.04,0.40,-0.00,-0.43,9.21
0.03,-0.07,0.43,0.02,-0.23,9.34
-0.00,-0.22,0.47,-0.02,-0.03,9.39
-0.27,-0.32,0.44,-0.09,-0.28,9.53
-0.05,-0.35,0.51,-0.06,-0.40,9.55
0.38,-0.33,0.52,-0.01,-0.36,9.56
0.54,-0.21,0.53,0.13,-0.19,9.51
0.54,0.14,0.64,0.14,-0.10,9.63
0.17,0.72,0.75,0.00,-0.11,9.98
0.19,0.72,0.85,-0.12,-0.17,10.22
0.04,0.57,0.89,-0.07,-0.21,10.36
-0.03,0.53,0.95,-0.07,0.01,10.49
-0.50,0.52,1.04,-0.03,0.03,10.53
-0.74,0.60,1.12,0.01,-0.06,10.71
-1.12,0.61,1.21,0.09,-0.17,10.83
-1.45,0.54,1.49,-0.05,-0.32,10.80
-1.38,0.47,1.56,-0.18,-0.18,10.46
-1.44,0.37,1.63,-0.22,-0.09,10.06
-1.63,0.28,1.62,-0.08,-0.22,9.80
-1.53,0.35,1.69,-0.17,-0.44,9.56
-0.63,-0.03,1.80,-0.17,-0.57,9.35
-0.10,-0.18,1.87,-0.26,-0.44,9.32
0.17,-0.26,1.91,-0.37,-0.19,9.23
-0.05,-0.56,2.03,-0.25,-0.18,9.16
0.11,-0.42,2.09,-0.19,-0.39,9.11
0.50,-0.15,2.21,-0.18,-0.47,8.99
1.02,0.11,2.30,-0.17,-0.41,9.00
1.29,0.79,2.42,-0.29,-0.11,9.26
1.23,0.90,2.54,-0.48,-0.11,9.22
1.38,0.81,2.61,-0.33,-0.26,9.23
1.82,0.93,2.73,-0.05,-0.31,9.26
2.26,1.23,2.86,-0.15,-0.12,9.04
2.31,1.32,3.04,-0.35,0.09,9.25
2.22,1.26,3.09,-0.35,0.08,9.49
2.23,1.00,3.23,-0.22,0.09,9.81
1.96,0.26,3.51,-0.35,0.19,9.92
1.78,0.16,3.70,-0.12,0.21,10.22
1.24,0.32,3.86,-0.19,0.24,10.31
0.63,0.41,3.97,-0.49,0.14,10.33
0.32,-0.04,4.16,-0.35,-0.14,10.83
0.33,-0.13,4.37,-0.36,0.01,10.84
-0.16,-0.26,4.53,-0.43,0.08,10.58
-0.62,-0.20,4.66,-0.35,0.01,10.48
-0.72,0.15,4.88,-0.66,-0.22,10.09
-0.36,-0.06,5.01,-0.53,-0.14,10.00
-0.08,-0.02,5.18,-0.34,-0.01,9.88
-0.20,0.30,5.34,-0.19,0.06,9.74
-0.30,0.92,5.63,-0.65,-0.23,9.55
0.20,0.82,5.77,-0.75,-0.33,9.67
0.72,0.65,5.83,-0.65,-0.21,9.76
0.87,0.52,5.92,-0.54,-0.06,9.77
0.50,0.48,6.12,-0.56,-0.13,9.51
0.70,0.38,6.20,-0.72,-0.29,9.48
1.19,0.20,6.19,-0.90,-0.23,9.48
1.64,-0.18,6.25,-0.98,-0.03,9.69
1.61,-0.81,6.40,-0.62,0.26,9.83
1.23,-0.68,6.51,-0.55,0.33,9.77
0.84,-0.43,6.54,-0.71,0.21,9.73
0.89,-0.39,6.61,-0.95,0.06,9.86
1.14,-0.75,6.61,-0.99,0.29,10.05
0.74,-0.79,6.67,-0.76,0.37,10.10
0.33,-0.62,6.76,-0.70,0.32,10.06
-0.09,-0.53,6.86,-0.71,0.14,10.04
0.09,-0.20,6.97,-0.84,-0.08,9.95
0.30,-0.02,7.00,-0.85,0.14,10.06
0.09,-0.04,7.01,-0.81,0.37,10.21
-0.28,-0.05,7.05,-0.70,0.35,10.38
-0.55,-0.12,7.22,-0.60,0.03,10.22
-0.05,-0.00,7.31,-0.61,0.14,10.14
-0.01,0.14,7.43,-0.56,0.35,10.06
-0.12,0.29,7.49,-0.75,0.40,10.10
-0.45,0.00,7.48,-0.79,0.25,10.03
-0.24,-0.26,7.53,-0.68,0.22,9.79
-0.06,-0.31,7.59,-0.46,0.30,9.52
0.02,-0.16,7.74,-0.48,0.31,9.41
0.38,-0.24,7.77,-1.00,0.08,9.41
1.00,-0.63,7.79,-1.13,0.21,9.36
1.46,-1.03,7.76,-0.85,0.43,9.37
1.58,-1.18,7.85,-0.61,0.53,9.35
1.02,-0.78,7.99,-0.69,0.61,9.30
0.78,-0.65,8.00,-0.96,0.47,9.36
1.00,-0.75,7.99,-1.11,0.41,9.50
1.24,-1.02,8.00,-1.04,0.48,9.74
0.41,-1.05,8.12,-0.58,0.55,9.85
0.06,-0.66,8.16,-0.73,0.33,9.78
0.14,-0.47,8.19,-0.95,0.17,9.73
0.45,-0.47,8.20,-1.02,0.24,9.94
0.28,-0.64,8.20,-0.93,0.59,10.09
-0.15,-0.68,8.18,-0.85,0.43,10.04
-0.17,-0.50,8.19,-0.77,0.17,9.89
1.00,-0.22,8.22,-1.09,0.40,9.85
0.92,-0.31,8.17,-1.05,0.72,10.14
0.24,-0.38,8.14,-0.92,0.80,10.26
-0.36,-0.43,8.14,-0.84,0.48,10.08
-0.45,-0.39,8.18,-0.74,0.08,9.91
0.61,0.15,8.21,-0.77,0.25,9.74
0.62,0.31,8.18,-0.85,0.50,10.01
0.04,0.29,8.15,-0.92,0.57,10.17
-0.30,0.06,8.12,-0.92,0.39,10.18
0.29,-0.35,8.20,-0.75,0.37,9.74
0.45,-0.26,8.16,-0.76,0.57,9.67
0.06,-0.15,8.11,-0.79,0.52,9.98
-0.27,-0.29,8.10,-1.08,0.31,10.14
0.49,-1.38,8.12,-0.93,0.38,10.04
0.39,-1.56,8.17,-0.59,0.65,9.78
-0.08,-1.24,8.21,-0.53,0.56,9.51
-0.43,-0.74,8.23,-0.64,0.17,9.53
-0.16,-0.47,8.25,-0.88,-0.13,9.63
1.17,-0.57,8.25,-0.91,0.52,9.63
0.81,-0.46,8.24,-0.65,0.90,9.56
-0.09,-0.05,8.30,-0.54,0.80,9.49
-0.28,0.51,8.34,-0.86,-0.04,9.78
0.27,0.40,8.29,-0.95,0.12,9.96
0.67,0.09,8.31,-1.06,0.69,10.00
0.06,-0.28,8.34,-0.93,1.03,10.00
-1.53,-0.44,8.39,-0.70,0.17,9.86
-1.13,-0.44,8.37,-0.90,-0.19,9.79
-0.40,-0.72,8.33,-1.19,-0.08,9.63
0.37,-1.08,8.35,-1.12,0.29,9.59
0.33,-1.29,8.31,-0.80,0.73,9.64
-0.89,-0.95,8.32,-0.75,0.28,9.57
-0.63,-0.78,8.31,-1.02,-0.18,9.53
0.55,-0.74,8.30,-1.26,-0.12,9.39
1.60,-0.49,8.26,-0.81,0.72,9.89
0.80,-0.16,8.25,-0.87,0.81,10.06
-0.10,-0.04,8.20,-0.88,0.51,10.21
-0.10,0.04,8.19,-0.93,0.09,10.25
1.13,-0.17,8.15,-0.99,0.27,10.08
1.23,-0.11,8.13,-0.70,0.69,10.33
0.29,-0.00,8.15,-0.74,0.83,10.27
-0.42,-0.04,8.15,-0.90,0.49,10.07
-0.26,-0.21,8.11,-0.90,0.11,9.97
0.50,-0.05,8.11,-0.74,0.46,9.73
0.23,0.05,8.08,-0.82,0.75,9.86
-0.40,-0.10,8.09,-0.88,0.67,10.07
-0.69,-0.79,8.10,-0.80,0.32,9.96
-0.53,-0.82,8.08,-0.76,0.36,9.60
-0.51,-0.65,8.05,-0.74,0.36,9.39
-0.54,-0.41,8.03,-0.66,0.35,9.60
-0.73,-0.43,8.05,-0.93,0.33,9.95
-0.72,-0.72,8.05,-0.87,0.40,9.87
-0.71,-0.77,8.06,-0.77,0.47,9.59
-0.96,-0.62,8.04,-0.65,0.41,9.46
-0.64,0.00,8.03,-0.89,0.31,9.70
-0.54,-0.27,8.06,-0.87,0.44,9.76
-0.56,-0.44,8.04,-0.81,0.57,9.64
-0.83,-0.40,8.04,-0.73,0.46,9.27
-0.11,0.35,8.02,-0.72,0.09,9.48
0.29,0.36,7.99,-0.98,0.18,9.64
0.49,0.01,8.00,-1.00,0.43,9.73
0.39,-0.17,7.99,-0.82,0.62,9.67
-0.23,0.34,7.87,-0.68,0.30,9.49
0.01,0.56,7.82,-0.91,0.12,9.65
0.53,0.44,7.79,-1.07,0.16,9.86
1.00,0.25,7.79,-1.02,0.48,9.98
-0.04,0.38,7.68,-0.71,0.74,10.01
-0.42,0.69,7.65,-0.79,0.35,9.97
-0.20,0.89,7.56,-0.80,0.05,10.03
0.55,1.02,7.54,-0.83,0.19,10.14
0.04,1.06,7.50,-0.66,0.82,10.26
-0.66,1.21,7.49,-0.69,0.60,10.22
-1.01,1.23,7.42,-0.82,0.22,10.17
-0.75,1.01,7.37,-0.99,0.02,10.06
-0.20,0.21,7.27,-0.86,0.55,10.03
-0.56,-0.09,7.32,-0.72,0.73,9.91
-1.11,-0.17,7.34,-0.58,0.64,9.86
-1.43,-0.01,7.37,-0.62,0.41,9.69
-0.97,-0.10,7.35,-1.04,0.02,9.46
-0.46,-0.32,7.25,-1.07,0.07,9.42
0.10,-0.63,7.19,-0.95,0.32,9.40
0.32,-0.84,7.20,-0.79,0.55,9.49
-0.10,-0.99,7.26,-0.83,0.37,9.38
0.16,-0.89,7.24,-0.88,0.09,9.46
0.57,-0.84,7.27,-0.93,-0.01,9.58
1.02,-0.83,7.21,-1.04,0.17,9.73
0.69,-0.98,7.08,-0.76,0.63,9.84
0.32,-0.95,7.12,-0.69,0.55,9.72
0.29,-0.77,7.14,-0.76,0.27,9.58
0.69,-0.56,7.15,-0.77,0.12,9.67
1.12,-0.21,7.06,-1.01,0.52,9.85
0.77,-0.35,6.97,-1.07,0.60,9.92
0.45,-0.49,6.83,-0.96,0.51,9.91
0.47,-0.57,6.76,-0.89,0.39,9.83
0.71,-0.57,6.75,-0.76,0.30,9.85
0.69,-0.61,6.74,-0.87,0.34,9.93
0.56,-0.71,6.66,-0.93,0.44,9.99
0.37,-0.87,6.57,-1.04,0.46,9.99
0.11,-1.20,6.39,-0.79,0.39,9.91
0.05,-1.15,6.39,-0.59,0.44,9.90
-0.39,-1.01,6.37,-0.59,0.37,9.98
-0.69,-0.83,6.37,-0.63,0.21,10.10
-0.67,-0.74,6.35,-0.67,0.06,10.16
-0.61,-0.54,6.30,-0.60,0.20,10.04
-0.89,-0.25,6.27,-0.49,0.27,9.99
-1.17,0.10,6.23,-0.36,0.12,10.01
-0.63,0.30,6.27,-0.68,-0.11,9.64
-0.01,0.11,6.27,-0.63,0.08,9.39
0.29,-0.03,6.21,-0.45,0.37,9.39
0.21,0.07,6.21,-0.44,0.57,9.39
-0.03,-0.28,6.07,-0.61,0.17,9.32
0.53,-0.37,6.09,-0.43,0.03,9.42
1.00,-0.41,6.08,-0.47,0.10,9.38
1.01,-0.21,5.98,-0.61,0.24,10.14
0.69,-0.23,5.96,-0.71,0.29,10.68
0.40,-0.77,5.92,-0.93,0.35,10.77
0.21,-1.68,5.89,-1.03,0.26,10.68
-0.06,-2.22,5.85,-0.68,0.24,10.63
-0.65,-2.04,5.82,-0.73,0.31,10.00
-0.65,-1.95,5.78,-0.92,0.32,9.87
-0.52,-2.01,5.74,-0.93,0.34,10.03
-0.69,-2.19,5.70,-0.90,0.36,10.07
-1.32,-2.10,5.58,-0.51,0.18,9.51
-1.29,-1.57,5.57,-0.63,0.02,9.32
-1.06,-1.22,5.50,-0.90,-0.16,9.43
-0.57,-1.23,5.40,-0.98,-0.31,9.84
-0.39,-1.68,5.26,-0.77,-0.16,9.79
-0.61,-1.49,5.19,-0.58,-0.16,9.62
-0.67,-1.25,5.12,-0.57,-0.28,9.51
-0.20,-1.24,5.00,-0.73,-0.27,9.67
0.31,-1.50,4.92,-0.95,-0.12,9.76
0.43,-2.50,4.76,-0.57,0.16,9.41
0.59,-2.35,4.71,-0.44,0.16,9.20
0.63,-2.22,4.68,-0.47,0.08,9.15
1.15,-2.48,4.48,-0.80,-0.08,9.39
1.21,-2.77,4.38,-0.58,-0.04,9.60
1.20,-2.67,4.33,-0.34,-0.01,9.78
0.74,-2.43,4.32,-0.39,-0.19,9.97
0.91,-2.34,4.27,-0.54,-0.23,10.12
0.80,-2.33,4.18,-0.54,-0.10,10.25
0.57,-2.24,4.13,-0.37,0.04,10.37
0.26,-2.08,4.08,-0.28,0.17,10.38
-0.25,-2.04,4.05,-0.33,0.24,10.31
-0.83,-1.87,3.97,-0.19,0.10,10.24
-1.07,-1.80,3.97,-0.17,0.06,10.16
-1.26,-1.66,3.93,-0.19,0.05,10.16
-1.89,-1.68,3.82,-0.18,-0.10,10.19
-2.07,-1.72,3.81,-0.22,-0.24,10.09
-2.04,-1.70,3.79,-0.18,-0.30,9.94
-1.95,-1.66,3.75,-0.16,-0.31,9.91
-1.87,-1.74,3.65,-0.46,-0.25,9.51
-1.71,-1.99,3.54,-0.41,-0.31,9.43
-1.27,-2.09,3.45,-0.39,-0.31,9.33
-0.87,-2.27,3.40,-0.47,-0.24,9.13
-0.24,-2.48,3.19,-0.24,-0.22,9.00
0.15,-2.15,3.17,-0.28,-0.11,8.93
0.17,-1.91,3.08,-0.44,-0.03,9.08
0.03,-1.69,2.99,-0.36,-0.05,9.57
-0.29,-1.82,2.84,-0.39,-0.03,10.22
-0.39,-2.09,2.81,-0.41,-0.02,10.32
-0.79,-2.23,2.80,-0.28,-0.05,10.23
-1.12,-1.97,2.75,0.01,-0.09,10.28
-1.83,-1.18,2.73,-0.13,-0.13,10.35
-1.92,-1.13,2.69,-0.16,-0.10,10.41
-2.02,-1.10,2.75,0.05,0.01,10.52
-2.34,-0.92,2.75,0.01,0.19,10.42
-3.08,-0.84,2.68,-0.08,0.09,10.12
-3.06,-0.93,2.63,-0.07,-0.39,9.74
-2.51,-1.05,2.56,-0.21,-0.36,9.61
-2.25,-1.29,2.53,-0.04,-0.27,9.73
-2.54,-1.62,2.53,-0.07,-0.24,9.76
-2.61,-1.81,2.51,-0.12,-0.48,9.78
-2.47,-1.99,2.43,-0.14,-0.53,9.71
-2.08,-2.14,2.37,-0.12,-0.38,9.63
-2.25,-2.30,2.38,0.03,-0.13,9.53
-2.53,-2.16,2.39,0.08,-0.29,9.41
-2.40,-1.89,2.36,0.06,-0.39,9.25
-2.14,-1.62,2.30,-0.11,-0.34,9.07
-1.59,-1.59,2.18,-0.14,-0.28,8.94
-1.52,-1.40,2.13,0.10,-0.33,9.05
-1.44,-1.00,2.08,0.06,-0.30,8.95
-1.19,-0.76,2.08,-0.09,-0.22,8.72
-0.54,-0.42,1.91,-0.01,-0.40,8.94
-0.13,-0.07,1.83,-0.03,-0.39,9.10
0.17,0.05,1.73,0.02,-0.31,9.34
0.21,-0.04,1.70,-0.03,-0.22,9.60
-0.16,-0.26,1.56,-0.15,-0.28,9.97
-0.18,-0.49,1.43,-0.15,-0.38,10.18
-0.00,-0.74,1.30,-0.14,-0.33,10.36
-0.01,-1.13,1.24,-0.17,-0.22,10.43
-0.50,-1.53,1.15,0.20,-0.22,10.51
-0.75,-1.30,1.13,0.14,-0.27,10.38
-1.01,-1.17,1.07,-0.04,-0.41,10.21
-0.77,-1.23,1.00,-0.01,-0.48,10.08
0.27,-0.99,1.00,0.35,-0.08,9.82
-0.15,-0.60,0.97,0.43,-0.09,9.65
-0.55,-0.26,0.98,0.23,-0.37,9.35
-0.10,-0.08,0.95,0.13,-0.58,9.28
0.90,0.32,0.89,0.26,-0.23,9.56
0.70,0.27,0.89,0.24,-0.00,9.52
0.22,0.16,0.87,0.31,-0.10,9.57
-0.02,0.26,0.85,0.34,-0.38,9.56
0.77,0.15,0.77,0.15,-0.43,9.63
1.05,-0.28,0.79,0.02,-0.20,9.73
0.70,-0.80,0.77,0.14,-0.13,9.86
0.30,-1.10,0.74,0.25,-0.11,9.85
-0.08,-1.35,0.76,0.11,-0.20,9.56
-0.04,-1.47,0.73,0.20,-0.37,9.46
0.41,-1.27,0.73,0.24,-0.31,9.41
0.55,-0.86,0.71,0.26,-0.12,9.42
0.02,-0.21,0.63,0.06,-0.35,9.27
0.54,0.01,0.55,-0.00,-0.44,9.14
1.05,0.18,0.51,0.17,-0.33,9.16
1.14,0.41,0.52,0.19,-0.16,9.29
0.64,0.58,0.40,0.23,-0.35,9.59
0.77,0.63,0.33,0.08,-0.49,9.67
1.26,0.66,0.26,-0.09,-0.40,9.72
1.40,0.47,0.21,0.00,-0.07,10.10
-0.09,-0.15,0.07,0.04,0.01,10.71
-0.38,-0.59,0.12,0.01,-0.29,10.53
-0.10,-0.93,0.11,0.13,-0.45,10.41
0.15,-0.83,0.08,0.26,-0.20,10.44
-0.72,-0.64,0.03,0.02,0.06,10.63
-1.11,-0.89,0.04,0.07,-0.11,10.77
-1.21,-1.12,0.08,0.17,-0.23,10.73
-1.35,-1.22,0.13,0.28,-0.29,10.56
-1.34,-1.01,0.18,0.07,-0.34,10.09
-1.26,-0.93,0.09,-0.03,-0.32,10.07
-1.28,-1.04,0.14,0.20,-0.31,10.19
-1.20,-1.09,0.28,0.33,-0.30,10.16
-1.22,-1.24,0.33,0.12,-0.63,9.27
-0.29,-1.03,0.26,0.17,-0.69,9.07
0.44,-0.81,0.20,0.22,-0.33,9.04
0.36,-0.74,0.18,0.14,0.02,9.20
-0.59,-1.23,0.28,0.32,-0.42,9.34
0.10,-1.28,0.33,0.20,-0.64,9.13
0.85,-1.26,0.32,0.21,-0.47,9.21
1.06,-1.13,0.30,0.16,-0.07,9.48
0.19,-1.44,0.23,0.06,-0.06,9.57
0.12,-1.56,0.28,0.27,-0.43,9.58
0.50,-1.32,0.24,0.31,-0.62,9.47
0.98,-1.08,0.25,0.23,-0.43,9.34
1.12,-0.65,0.18,0.27,-0.09,9.53
0.89,-0.29,0.20,0.31,-0.16,9.64
0.68,0.10,0.13,0.34,-0.27,9.69
0.65,0.51,0.05,0.38,-0.40,9.88
1.00,0.73,-0.05,0.08,-0.32,10.04
1.23,0.43,-0.12,0.15,-0.19,10.27
0.95,0.23,-0.16,0.40,-0.07,10.51
0.53,0.34,-0.16,0.45,-0.04,10.29
0.48,0.34,-0.26,0.46,-0.44,10.17
0.74,0.46,-0.30,0.34,-0.29,10.32
0.56,0.25,-0.29,0.24,-0.07,10.44
0.13,-0.05,-0.38,0.25,0.05,10.44
-0.50,-0.22,-0.41,0.48,-0.02,10.21
-0.60,0.15,-0.32,0.55,-0.57,9.61
-0.10,0.45,-0.30,0.50,-0.46,9.50
0.11,0.66,-0.31,0.39,-0.18,9.54
-0.57,0.70,-0.48,0.32,-0.12,9.49
-0.86,0.58,-0.47,0.30,-0.26,9.40
-0.95,0.37,-0.48,0.45,-0.49,9.36
-0.74,0.32,-0.46,0.50,-0.60,9.40
-0.58,0.34,-0.44,0.11,-0.60,9.42
-0.51,-0.06,-0.53,0.02,-0.64,9.50
-0.24,-0.52,-0.59,0.14,-0.68,9.69
0.13,-0.93,-0.55,0.12,-0.54,9.77
0.25,-1.40,-0.55,0.01,-0.33,9.56
0.67,-2.06,-0.53,0.08,-0.23,9.47
0.82,-2.11,-0.47,0.07,-0.12,9.50
0.75,-2.06,-0.50,0.05,-0.16,9.67
0.38,-1.64,-0.58,0.08,-0.33,9.93
0.49,-1.56,-0.63,-0.17,-0.36,9.88
0.67,-1.62,-0.68,-0.12,-0.32,10.08
0.84,-1.58,-0.73,-0.12,-0.28,10.27
0.32,-1.52,-0.77,0.23,-0.22,10.38
0.08,-1.26,-0.78,0.14,-0.30,10.21
-0.05,-0.92,-0.85,0.29,-0.39,10.40
-0.35,-0.47,-0.91,0.32,-0.37,10.80
-1.57,-0.70,-1.08,0.04,-0.48,11.04
-1.76,-1.21,-1.13,0.11,-0.74,10.84
-1.62,-1.46,-1.19,0.46,-0.70,10.49
-1.36,-1.41,-1.14,0.68,-0.37,10.14
-1.92,-0.91,-1.13,0.58,-0.10,9.79
-2.24,-0.60,-1.20,0.64,-0.19,9.76
-2.34,-0.46,-1.17,0.56,-0.36,9.67
-2.20,-0.46,-1.25,0.63,-0.53,9.62
-1.46,-0.24,-1.19,0.64,-0.34,9.34
-1.44,-0.28,-1.25,0.61,-0.26,9.01
-1.59,-0.20,-1.27,0.78,-0.33,9.01
-1.77,0.07,-1.28,0.84,-0.58,8.87
-1.78,0.40,-1.38,1.00,-0.86,8.87
-0.80,0.74,-1.43,0.45,-0.83,8.90
-0.46,0.45,-1.55,0.49,-0.41,9.24
-0.69,-0.00,-1.53,0.40,-0.10,9.57
-1.86,-0.90,-1.61,0.61,-0.46,9.38
-1.49,-1.12,-1.61,0.55,-0.67,9.08
-0.89,-0.96,-1.75,0.75,-0.51,9.02
-0.53,-0.52,-1.70,0.77,-0.26,9.16
-1.29,0.27,-2.02,0.37,-0.16,9.66
-1.75,0.40,-2.06,0.37,-0.41,10.18
-2.01,0.31,-2.20,0.22,-0.67,10.47
-2.09,-0.20,-2.28,0.16,-0.78,10.69
-1.76,-1.02,-2.63,0.13,-0.86,10.28
-1.62,-0.95,-2.75,0.45,-0.84,10.27
-1.55,-0.59,-2.86,0.28,-0.73,10.09
-1.71,-0.56,-3.07,0.32,-0.65,9.98
-1.10,-0.61,-3.22,0.41,-0.63,9.79
-0.77,-0.34,-3.36,0.46,-0.42,9.72
-0.92,-0.27,-3.48,0.27,-0.44,9.88
-1.13,-0.35,-3.80,0.24,-0.58,10.08
-0.62,-1.30,-4.03,0.22,-0.55,10.27
-0.83,-1.84,-4.18,0.65,-0.40,10.26
-1.10,-1.93,-4.17,0.79,-0.50,10.17
-1.33,-1.92,-4.24,0.52,-0.75,9.68
-0.44,-1.80,-4.55,0.58,-1.07,9.49
-0.09,-1.67,-4.69,0.84,-0.74,9.63
-0.30,-1.52,-4.83,0.91,-0.48,9.70
-0.92,-1.62,-4.87,0.79,-0.55,9.37
0.08,-1.26,-5.02,0.87,-0.76,8.89
0.50,-0.94,-5.14,0.80,-0.44,8.73
0.41,-0.56,-5.33,0.97,-0.25,8.81
-0.02,-0.23,-5.52,1.15,-0.34,8.91
0.07,0.42,-5.81,1.14,-0.85,9.12
0.54,0.54,-5.99,1.23,-0.83,9.44
0.99,0.60,-5.99,1.16,-0.55,9.80
0.36,0.43,-6.08,0.95,-0.50,10.00
0.04,-0.40,-6.52,0.82,-1.03,9.73
0.77,-0.84,-6.70,0.84,-1.01,9.57
1.19,-1.12,-6.98,1.09,-0.70,9.48
1.20,-1.23,-7.08,1.14,-0.43,9.35
0.63,-1.09,-7.47,1.14,-0.52,9.16
0.92,-0.84,-7.66,1.14,-0.68,9.39
1.34,-0.58,-7.88,0.98,-0.59,9.59
1.41,-0.57,-8.07,0.91,-0.43,9.90
0.83,-0.68,-8.50,0.81,-0.59,10.23
0.83,-0.77,-8.67,0.81,-0.76,10.14
0.94,-0.86,-8.87,1.16,-0.87,10.20
1.15,-0.51,-9.00,1.33,-1.02,10.36
1.17,-0.13,-9.52,0.96,-0.22,9.97
0.72,0.05,-9.67,1.12,-0.46,10.36
0.30,-0.03,-9.83,1.17,-0.81,10.21
0.56,-0.28,-9.99,1.16,-0.80,10.08
1.29,-0.42,-10.29,1.47,-0.42,9.96
0.99,-0.22,-10.35,1.57,-0.23,9.88
0.33,0.17,-10.51,1.59,-0.31,9.76
0.07,0.52,-10.68,1.50,-0.58,9.67
0.75,0.78,-11.03,1.46,-0.82,10.08
0.74,0.55,-11.12,1.47,-0.59,10.35
0.11,0.12,-11.24,1.57,-0.56,10.49
-0.15,-0.21,-11.29,1.47,-0.69,10.31
0.30,-0.67,-11.58,1.51,-0.94,9.62
0.77,-0.62,-11.69,1.56,-0.84,9.43
0.92,-0.31,-11.85,1.76,-0.57,9.41
0.62,0.05,-11.93,1.85,-0.38,9.49
0.25,0.24,-12.02,1.70,-0.43,9.32
0.77,0.65,-12.22,1.64,-0.56,9.51
0.73,0.81,-12.36,1.61,-0.41,9.60
0.42,0.96,-12.50,1.69,-0.31,9.86
-0.59,1.20,-12.79,1.75,-0.51,9.89
-0.53,1.32,-12.82,1.84,-0.64,10.05
-0.75,1.52,-12.88,1.83,-0.50,10.25
-1.73,1.61,-12.98,1.43,-0.56,10.19
-1.61,0.33,-13.45,1.24,-1.39,9.99
-0.49,-0.45,-13.61,1.05,-1.20,9.89
0.46,-1.43,-13.76,1.22,-0.67,9.85
0.78,-2.34,-13.72,1.68,-0.05,10.04
-0.05,-2.73,-13.50,1.36,0.11,9.72
-1.16,-1.61,-14.00,2.04,-0.78,9.47
-0.74,-0.67,-14.03,1.34,-0.80,9.23
-0.34,-0.37,-14.41,1.23,-0.68,9.37
0.04,-0.40,-14.45,1.57,-0.51,10.30
-0.25,-0.40,-14.56,1.53,-0.51,10.13
-0.47,-0.38,-14.47,1.70,-0.70,10.14
-0.52,-0.11,-14.58,1.70,-0.95,9.95
0.42,0.77,-14.83,1.86,-0.72,9.91
0.43,0.89,-14.91,1.98,-0.29,10.01
0.00,0.88,-14.90,2.23,-0.06,10.27
-0.60,0.87,-14.78,1.99,-0.24,10.17
-0.40,0.55,-14.82,1.96,-1.18,9.75
0.68,0.54,-14.83,1.86,-1.03,9.65
1.30,0.42,-14.92,2.03,-0.47,9.75
1.28,0.15,-14.91,2.02,-0.06,9.81
0.02,-0.05,-14.86,2.20,-0.22,9.71
-0.43,0.16,-14.75,2.20,-0.50,9.66
-0.25,0.42,-14.73,2.06,-0.69,9.63
0.19,0.43,-14.65,1.98,-0.61,9.70
0.69,0.14,-14.66,1.89,-0.27,10.01
0.29,0.07,-14.59,1.98,-0.15,10.06
0.03,0.18,-14.54,1.93,-0.07,10.10
-0.61,0.21,-14.51,1.88,-0.15,10.02
-0.96,0.26,-14.50,1.79,-0.27,9.86
-0.70,0.14,-14.43,1.85,-0.36,9.73
-0.57,0.20,-14.41,1.76,-0.32,9.74
-0.81,0.08,-14.46,1.72,-0.39,9.54
-0.33,-0.03,-14.36,1.61,-0.49,9.28
-0.09,-0.07,-14.42,1.64,-0.46,9.11
0.34,-0.06,-14.36,1.74,-0.36,9.17
0.55,-0.07,-14.36,1.67,-0.22,9.00
1.21,-0.05,-14.34,1.81,-0.45,8.54
1.93,0.71,-14.38,1.74,-0.42,8.47
2.18,1.69,-14.49,1.75,-0.01,8.98
1.99,2.53,-14.60,1.66,0.22,9.86
1.64,2.47,-14.67,1.32,0.30,10.60
1.08,0.20,-14.69,1.24,0.13,12.19
0.34,-1.05,-14.61,1.49,0.15,12.21
-0.62,-1.90,-14.67,1.31,0.01,11.02
-0.51,-1.78,-14.62,1.84,-0.81,9.00
0.52,-0.36,-14.75,2.33,-0.66,8.81
0.77,0.80,-14.63,2.66,-0.03,9.26
0.37,1.52,-14.57,2.40,0.37,10.01
-1.44,0.78,-14.37,1.35,-0.16,10.17
-0.66,0.04,-14.48,0.98,-0.53,9.90
0.52,-0.76,-14.56,1.45,-0.33,9.75
1.41,-1.00,-14.53,1.93,0.22,9.67
-0.21,-0.21,-14.31,2.65,0.45,9.45
-1.12,0.82,-14.24,2.51,0.14,9.46
-1.79,1.49,-14.22,2.04,-0.31,9.40
-1.38,1.76,-14.33,1.67,-0.59,9.73
-0.48,0.80,-14.34,1.47,-0.33,10.39
-0.50,-0.02,-14.28,1.82,-0.13,10.47
-0.83,-0.46,-14.22,1.89,-0.15,10.03
-0.80,-0.51,-14.26,1.71,-0.29,9.14
0.69,0.25,-14.41,2.02,-0.09,8.82
0.82,0.77,-14.42,1.97,0.48,9.13
-0.08,0.75,-14.39,1.84,0.72,9.55
-0.98,0.36,-14.35,1.73,0.28,9.77
-0.18,-0.39,-14.32,1.46,-0.57,9.59
0.63,-0.49,-14.42,1.48,-0.37,9.58
0.80,-0.43,-14.50,1.52,0.06,9.77
0.05,-0.39,-14.55,1.67,0.26,9.94
-1.19,-0.18,-14.47,1.76,-0.41,10.08
-0.80,-0.11,-14.46,1.49,-0.45,10.01
-0.26,-0.29,-14.53,1.27,-0.23,10.06
0.03,-0.57,-14.61,1.31,0.08,10.28
-0.86,-1.11,-14.63,1.57,0.30,10.14
-1.02,-1.20,-14.57,1.78,-0.04,9.88
-0.68,-0.97,-14.51,2.02,-0.23,9.69
-0.12,-0.29,-14.45,1.97,-0.16,9.59
-0.39,0.81,-14.48,1.93,0.09,10.02
-0.83,1.21,-14.47,1.91,-0.00,10.31
-1.08,1.16,-14.43,1.79,-0.34,10.31
-0.79,0.89,-14.44,1.78,-0.67,10.27
0.30,0.97,-14.43,2.07,-0.31,10.07
0.22,1.04,-14.39,1.93,0.04,9.78
0.03,0.85,-14.35,1.84,0.10,9.53
-0.05,0.61,-14.43,1.94,0.02,9.38
0.22,0.30,-14.52,1.83,0.06,9.25
0.06,0.05,-14.51,1.90,0.15,9.46
-0.19,-0.35,-14.47,1.93,0.24,9.66
-0.67,-0.76,-14.40,1.79,0.22,9.74
-1.26,-1.04,-14.39,1.74,-0.15,9.81
-1.31,-1.03,-14.40,1.66,-0.22,9.71
-1.20,-0.91,-14.44,1.74,-0.24,9.66
-1.22,-0.76,-14.40,1.89,-0.23,9.63
-1.17,-0.02,-14.32,1.94,-0.22,9.31
-0.90,0.47,-14.30,1.82,-0.17,9.22
-0.60,0.90,-14.35,1.84,-0.03,9.23
-0.56,1.26,-14.35,1.90,0.11,9.45
-0.95,1.76,-14.37,1.75,0.04,9.60
-0.70,1.61,-14.37,1.77,-0.15,9.70
-0.26,1.42,-14.39,1.63,-0.14,9.81
-0.22,1.14,-14.41,1.64,-0.08,9.85
-0.70,0.65,-14.43,1.71,-0.27,10.20
-0.65,0.32,-14.47,1.51,-0.30,10.02
-0.34,-0.23,-14.47,1.50,-0.32,10.05
0.16,-0.60,-14.51,1.61,-0.25,10.06
-0.16,-0.73,-14.43,1.75,0.16,9.93
-0.55,-0.69,-14.44,1.69,0.04,9.65
-0.37,-0.63,-14.39,1.71,-0.18,9.48
0.35,-0.36,-14.40,1.81,-0.00,9.58
-0.28,0.17,-14.30,1.75,0.62,9.90
-1.14,0.31,-14.29,1.77,0.31,9.88
-1.48,0.40,-14.24,1.83,-0.13,9.83
-0.83,0.62,-14.20,1.86,-0.36,9.72
-0.34,1.02,-14.14,1.93,-0.14,9.90
-0.50,1.15,-14.13,1.80,-0.07,9.90
-0.61,1.06,-14.15,1.69,-0.22,9.97
-0.29,0.91,-14.20,1.74,-0.28,9.99
0.20,0.35,-14.11,2.00,0.03,10.15
-0.25,0.31,-14.11,1.85,0.04,9.93
-0.35,0.34,-14.12,1.81,-0.07,9.73
0.05,0.40,-14.15,1.78,-0.00,9.65
0.07,0.14,-14.23,1.68,0.49,9.77
-0.66,-0.11,-14.20,1.82,0.37,9.83
-1.15,-0.25,-14.15,1.78,0.04,9.65
-1.20,-0.46,-14.10,1.58,-0.23,9.30
-0.25,-0.71,-14.16,1.61,-0.18,9.31
-0.33,-0.86,-14.14,1.65,0.18,9.45
-0.76,-0.82,-14.17,1.72,0.27,9.62
-1.46,-0.77,-14.16,1.71,0.04,9.66
-1.44,-0.71,-14.14,1.62,-0.31,9.50
0.23,-0.55,-14.03,1.77,-0.25,9.46
0.71,-0.12,-14.05,1.83,0.20,9.49
0.35,0.26,-14.00,1.72,0.48,9.38
-0.46,1.21,-14.04,2.04,-0.04,9.60
-0.06,1.74,-14.03,1.83,-0.33,9.62
0.45,1.90,-14.06,1.69,-0.26,9.83
0.66,1.72,-14.03,1.62,0.03,10.15
-0.15,1.00,-14.09,1.63,0.24,10.40
-0.59,0.53,-14.08,1.72,-0.07,10.18
-0.47,0.33,-14.07,1.92,-0.37,10.04
0.04,0.48,-14.09,2.06,-0.32,10.01
0.19,0.57,-14.03,1.80,0.08,9.88
-0.43,0.19,-14.01,1.78,0.34,10.24
-0.87,-0.07,-13.94,1.71,0.11,10.14
-0.72,-0.40,-13.94,1.63,-0.21,9.74
0.67,-0.76,-13.84,1.73,-0.37,9.22
1.21,-0.52,-13.88,1.84,0.01,9.10
1.08,-0.17,-13.83,1.95,0.32,9.22
0.35,0.27,-13.79,1.95,0.22,9.33
0.29,1.17,-13.73,1.99,-0.53,9.68
0.97,1.55,-13.69,1.82,-0.46,9.94
1.48,1.69,-13.72,1.67,0.05,10.25
1.27,1.58,-13.70,1.60,0.43,10.53
0.51,1.36,-13.67,1.72,0.40,10.67
-0.20,1.15,-13.62,1.80,-0.20,10.25
0.38,1.00,-13.59,1.76,-0.23,10.07
0.83,0.95,-13.53,1.79,0.20,10.13
-0.86,0.44,-13.50,1.62,0.47,9.84
-1.29,0.16,-13.46,1.65,-0.20,9.58
-0.78,0.04,-13.45,1.68,-0.61,9.21
0.24,0.12,-13.45,1.78,-0.46,8.99
0.70,0.46,-13.42,1.69,0.32,8.95
0.18,0.71,-13.43,1.69,0.35,9.04
-0.36,0.85,-13.45,1.65,0.02,9.13
-0.18,1.01,-13.48,1.71,-0.26,9.28
0.67,1.17,-13.52,1.47,0.18,9.92
0.13,0.91,-13.50,1.49,0.45,10.26
-0.50,0.65,-13.48,1.40,0.43,10.36
-0.97,0.38,-13.49,1.51,0.17,10.43
-1.09,0.14,-13.43,1.61,-0.19,10.33
-0.80,0.11,-13.36,1.63,-0.01,10.24
-0.92,0.08,-13.31,1.77,0.22,10.21
-1.23,0.27,-13.23,1.74,0.25,10.13
-1.71,0.71,-13.16,1.80,-0.23,9.58
-0.99,0.97,-13.09,1.70,-0.41,9.33
-0.25,1.18,-13.09,1.91,-0.26,9.30
0.06,1.47,-13.00,1.91,0.06,9.28
-0.34,1.90,-12.90,1.89,-0.08,9.23
0.05,2.06,-12.89,1.67,-0.31,9.04
0.92,2.12,-12.97,1.62,-0.34,9.17
1.45,2.06,-12.97,1.66,0.03,9.61
0.11,1.33,-12.88,1.68,0.23,10.44
-0.27,0.73,-12.82,1.55,-0.14,10.38
0.33,0.19,-12.76,1.43,-0.37,10.21
1.03,-0.17,-12.74,1.47,-0.18,10.28
0.22,0.02,-12.70,1.78,0.66,10.53
-0.85,0.17,-12.65,1.69,0.49,10.43
-1.45,0.30,-12.63,1.69,0.01,10.31
-1.12,0.59,-12.54,1.69,-0.27,10.21
-0.76,1.30,-12.47,1.56,0.15,10.27
-1.34,1.46,-12.43,1.56,0.28,10.13
-1.80,1.53,-12.39,1.58,0.06,9.94
-1.66,1.65,-12.37,1.61,-0.23,9.75
-1.15,1.81,-12.35,1.55,-0.24,9.52
-1.15,1.84,-12.38,1.43,-0.05,9.52
-1.18,1.59,-12.32,1.34,0.09,9.43
-1.16,1.12,-12.26,1.54,0.08,9.62
-1.31,1.00,-12.16,1.54,-0.07,9.32
-1.15,0.98,-12.13,1.39,-0.16,9.10
-0.74,1.15,-12.18,1.51,-0.16,9.23
-0.38,1.31,-12.15,1.60,0.03,9.38
-0.71,0.97,-12.04,1.61,0.06,9.56
-0.74,0.85,-11.99,1.58,-0.27,9.41
-0.20,0.83,-11.89,1.47,-0.46,9.16
0.64,0.86,-11.86,1.52,-0.36,9.09
0.99,1.40,-11.81,1.62,0.51,9.63
-0.04,1.49,-11.79,1.60,0.50,9.71
-0.64,1.41,-11.72,1.57,-0.00,9.81
-0.26,1.50,-11.62,1.54,-0.38,9.86
0.80,1.48,-11.46,1.41,0.22,10.03
0.23,1.49,-11.36,1.43,0.58,10.19
-0.75,1.53,-11.33,1.40,0.46,10.07
-1.25,1.48,-11.29,1.57,-0.07,9.95
-0.24,1.86,-11.04,1.56,-0.28,9.87
-0.24,1.87,-10.93,1.53,0.02,10.07
-0.65,1.97,-10.83,1.47,0.23,10.30
-1.25,1.89,-10.72,1.38,0.11,10.26
-0.71,1.34,-10.48,1.33,-0.29,10.00
-0.13,1.21,-10.34,1.45,-0.07,9.97
-0.23,1.19,-10.20,1.39,0.18,9.91
-0.78,1.30,-10.13,1.44,0.18,9.80
-0.86,1.51,-9.82,1.32,-0.15,9.81
-0.52,1.46,-9.71,1.14,-0.07,9.87
-0.39,1.08,-9.55,1.06,0.08,9.86
-0.65,0.47,-9.24,1.14,-0.02,9.53
-0.44,0.40,-9.02,1.18,-0.24,9.22
0.03,0.53,-8.89,1.27,-0.29,9.07
0.46,0.82,-8.69,1.36,-0.10,9.10
0.60,1.25,-8.52,1.30,0.15,9.35
-0.12,1.69,-8.12,1.09,0.20,9.79
-0.26,1.67,-7.97,0.94,0.05,9.86
-0.08,1.47,-7.78,0.82,-0.06,9.85
0.22,1.12,-7.63,0.85,0.05,9.81
-0.15,1.00,-7.36,1.19,0.33,9.87
-0.85,1.23,-7.11,1.23,0.31,9.85
-1.30,1.36,-6.91,1.09,0.06,9.88
-0.87,1.19,-6.50,0.93,-0.19,10.13
-0.54,1.04,-6.32,0.86,0.04,10.25
-0.82,0.86,-6.14,1.00,0.22,10.38
-1.30,0.84,-5.95,1.02,0.19,10.23
-1.62,0.76,-5.73,0.96,-0.13,9.81
-0.31,0.95,-5.36,0.98,-0.32,9.47
0.01,1.04,-5.16,0.89,0.09,9.43
-0.16,0.97,-4.96,0.81,0.38,9.44
-0.65,0.73,-4.79,0.77,0.24,9.26
-0.05,0.70,-4.39,0.97,-0.38,9.00
0.67,1.01,-4.20,0.95,-0.24,9.03
0.86,1.34,-4.03,0.88,0.10,9.28
0.38,1.51,-3.88,0.71,0.31,9.51
-0.12,1.25,-3.54,0.64,0.02,9.95
0.03,0.95,-3.34,0.58,-0.12,10.04
0.22,0.73,-3.16,0.61,-0.13,10.04
0.24,0.77,-3.01,0.71,-0.00,10.04
0.13,0.94,-2.85,0.53,0.10,9.94
0.07,1.08,-2.58,0.55,0.18,10.14
-0.01,1.14,-2.41,0.55,0.22,10.24
-0.34,1.08,-2.23,0.46,0.18,10.19
-0.39,0.88,-1.90,0.47,-0.24,9.79
0.18,1.02,-1.71,0.43,-0.21,9.54
0.58,1.25,-1.54,0.43,-0.04,9.50
0.33,1.47,-1.47,0.46,0.14,9.70
-0.21,1.53,-1.11,0.29,0.01,9.88
-0.16,1.32,-0.97,0.09,-0.10,9.87
-0.00,1.11,-0.86,0.20,-0.10,9.92
0.09,0.99,-0.72,0.31,0.05,9.97
-0.19,0.89,-0.52,0.30,0.13,9.90
-0.36,0.76,-0.16,0.40,-0.06,9.95
-0.23,0.74,0.06,0.41,-0.04,9.81
-0.13,0.68,0.25,0.32,-0.05,9.52
0.42,1.06,0.62,0.47,-0.12,9.49
0.66,1.33,0.81,0.40,-0.02,9.51
0.80,1.34,1.01,0.28,-0.03,9.53
0.86,1.23,1.15,0.27,-0.05,9.67
1.07,1.09,1.47,0.03,-0.03,9.81
1.17,0.97,1.63,0.07,-0.01,10.00
1.28,0.87,1.86,0.07,0.03,10.13
1.13,0.78,1.99,0.13,0.15,10.08
0.69,0.78,2.19,0.24,0.23,10.02
0.29,1.38,2.44,0.10,0.08,9.62
0.25,1.63,2.60,-0.01,-0.01,9.78
0.26,1.81,2.68,-0.09,0.00,9.84
0.07,1.58,2.99,0.01,0.23,9.92
-0.36,1.65,3.12,0.05,0.17,9.77
-0.61,1.86,3.25,0.04,-0.05,9.70
-0.43,2.09,3.30,-0.18,-0.24,9.67
0.31,1.93,3.42,-0.18,0.09,9.81
0.05,1.85,3.51,-0.04,0.28,9.79
-0.32,1.95,3.65,0.13,0.22,9.72
-0.49,2.21,3.80,0.06,-0.01,9.63
0.18,2.61,3.98,-0.29,-0.28,9.63
0.54,2.57,4.08,-0.19,-0.06,9.77
0.58,2.61,4.13,-0.10,0.21,9.83
0.19,2.72,4.23,-0.13,0.32,9.72
0.12,2.76,4.38,-0.32,-0.13,9.74
0.45,2.64,4.43,-0.40,-0.12,9.77
0.36,2.30,4.50,-0.40,-0.03,9.86
0.24,2.02,4.55,-0.34,0.07,9.91
0.00,1.74,4.77,-0.37,0.23,9.97
-0.21,1.46,4.88,-0.46,0.18,9.86
-0.38,1.25,4.98,-0.40,0.07,9.94
-0.42,1.24,5.08,-0.42,-0.04,9.92
-0.11,0.98,5.31,-0.50,-0.11,9.78
0.17,1.01,5.41,-0.49,0.09,9.81
-0.09,1.14,5.47,-0.40,0.26,9.90
-0.56,1.37,5.56,-0.42,0.19,9.97
-0.69,1.57,5.74,-0.52,-0.26,9.96
-0.19,1.59,5.81,-0.56,-0.19,10.04
0.05,1.62,5.80,-0.53,0.10,10.10
-0.28,1.57,5.88,-0.53,0.31,10.13
-1.03,1.21,5.96,-0.61,-0.14,9.86
-0.49,1.13,5.95,-0.55,-0.33,9.90
-0.09,1.06,5.98,-0.62,-0.19,9.79
0.08,0.87,6.04,-0.57,0.09,9.86
-0.49,0.41,6.06,-0.61,0.19,9.51
-0.51,0.43,6.03,-0.52,-0.09,9.51
-0.22,0.68,6.01,-0.61,-0.34,9.52
0.33,0.82,6.01,-0.58,-0.25,9.55
0.41,0.97,6.14,-0.49,0.34,9.57
0.03,1.16,6.15,-0.41,0.29,9.56
-0.26,1.43,6.12,-0.53,0.04,9.58
-0.14,1.67,6.07,-0.61,-0.16,9.76
0.17,1.44,6.07,-0.70,0.07,9.97
-0.07,1.29,6.09,-0.35,0.25,10.06
-0.57,1.53,6.17,-0.26,0.30,9.81
-0.85,1.92,6.25,-0.34,0.03,9.55
0.12,2.36,6.27,-0.69,-0.28,9.77
0.45,2.19,6.20,-0.63,0.06,10.07
0.12,2.03,6.18,-0.44,0.39,10.35
-0.64,1.89,6.30,-0.47,0.36,10.15
-0.80,1.53,6.40,-0.43,-0.27,9.98
-0.34,1.51,6.44,-0.60,-0.20,9.95
-0.29,1.25,6.47,-0.66,0.05,10.04
-0.61,0.79,6.55,-0.74,0.21,10.01
-0.86,0.24,6.67,-0.35,-0.01,9.65
-0.59,0.50,6.81,-0.42,-0.05,9.52
-0.51,0.78,6.84,-0.58,0.00,9.45
-0.62,0.70,6.95,-0.81,-0.07,9.55
-0.11,0.36,6.94,-0.81,-0.09,9.40
0.16,0.36,7.00,-0.65,0.05,9.35
0.17,0.57,7.05,-0.58,0.12,9.18
0.15,0.94,7.18,-0.54,0.03,9.12
0.37,1.63,7.22,-0.72,-0.29,9.32
1.05,1.78,7.25,-0.86,-0.26,9.57
1.34,1.67,7.19,-0.86,-0.01,9.80
1.34,1.60,7.21,-0.72,0.30,9.91
0.61,1.28,7.21,-0.73,0.18,9.84
0.60,1.27,7.25,-0.68,-0.03,10.05
0.65,1.22,7.25,-0.79,-0.01,10.23
0.48,0.87,7.27,-0.98,0.12,10.38
-0.06,-0.14,7.28,-0.76,0.20,10.56
-0.43,-0.23,7.33,-0.67,0.21,10.31
-0.64,-0.05,7.35,-0.79,0.10,9.95
-0.65,0.04,7.40,-0.89,-0.13,9.91
-0.08,-0.07,7.45,-0.77,-0.08,10.08
-0.24,0.01,7.48,-0.77,0.13,10.03
-0.64,0.15,7.47,-0.88,0.12,9.77
-0.82,0.20,7.48,-0.91,-0.11,9.58
0.15,0.55,7.54,-0.87,-0.15,9.58
0.26,0.46,7.57,-0.84,0.06,9.64
0.02,0.35,7.58,-0.60,0.12,9.81
-0.30,0.51,7.66,-0.58,-0.03,9.80
-0.09,0.77,7.67,-0.82,-0.39,10.02
0.40,0.70,7.66,-0.99,-0.19,10.21
0.42,0.34,7.73,-0.83,0.05,10.29
-0.03,0.12,7.79,-0.64,0.19,10.11
-0.74,0.60,7.94,-0.42,-0.02,9.57
-0.48,0.93,7.95,-0.70,-0.28,9.48
-0.01,1.08,7.96,-0.94,-0.26,9.52
0.27,0.87,7.98,-1.02,-0.05,9.49
0.03,0.57,8.02,-0.55,0.14,9.47
-0.13,0.69,8.11,-0.70,0.01,9.18
-0.01,0.70,8.13,-0.82,-0.12,9.20
0.26,0.67,8.15,-0.87,-0.23,9.32
0.47,0.38,8.17,-1.07,-0.26,9.87
0.61,0.02,8.14,-1.03,-0.13,9.99
0.73,-0.45,8.21,-0.95,0.18,9.91
0.31,-0.72,8.28,-0.78,0.20,9.86
-0.15,-0.49,8.27,-0.67,0.03,10.00
-0.20,-0.15,8.38,-1.10,-0.21,10.17
0.04,-0.27,8.43,-0.97,0.03,10.45
-0.13,-0.28,8.56,-0.95,0.34,10.46
-1.64,0.06,8.65,-0.67,0.18,10.14
-1.75,0.52,8.72,-0.95,-0.27,9.85
-1.29,0.52,8.70,-1.06,-0.43,9.69
-0.73,0.39,8.74,-1.07,-0.19,9.77
-1.16,0.31,8.82,-0.81,0.22,9.58
-1.59,0.27,8.92,-0.85,-0.09,9.58
-1.41,0.31,8.93,-0.91,-0.42,9.50
-0.69,0.28,8.98,-1.02,-0.46,9.48
-0.13,0.25,8.96,-1.12,-0.21,9.53
-0.49,-0.30,9.03,-1.13,0.27,9.77
-0.85,-0.64,9.01,-1.09,0.04,9.72
-0.67,-0.88,9.08,-0.82,-0.28,9.79
0.06,-0.88,9.24,-1.11,-0.11,9.71
0.00,-1.00,9.25,-1.13,0.04,9.98
-0.34,-1.11,9.26,-1.01,0.10,10.23
-0.54,-1.05,9.37,-0.96,0.08,10.23
-0.88,-0.79,9.49,-0.76,-0.18,10.04
-0.69,-0.37,9.55,-0.90,-0.22,10.03
-0.68,-0.17,9.58,-1.02,-0.17,9.93
-0.60,-0.04,9.61,-0.93,-0.10,10.08
-0.66,0.39,9.75,-0.77,0.05,9.52
-0.65,0.67,9.77,-0.78,-0.08,9.48
-0.43,0.95,9.78,-0.85,-0.26,9.44
-0.17,1.02,9.75,-0.93,-0.35,9.55
0.40,0.79,9.77,-1.04,-0.02,9.67
0.24,0.41,9.77,-0.97,0.10,9.73
-0.06,0.18,9.75,-0.85,0.13,9.68
-0.17,0.18,9.80,-0.84,-0.01,9.72
-0.06,-0.00,9.79,-1.18,-0.32,9.69
0.27,-0.21,9.81,-1.13,-0.16,9.84
0.37,-0.34,9.81,-0.95,0.14,9.81
-0.06,-0.44,9.84,-0.96,0.27,9.61
-0.44,-0.14,9.90,-1.09,-0.17,9.53
-0.17,-0.21,9.88,-1.22,-0.32,9.56
0.18,-0.30,9.89,-1.19,-0.15,9.65
0.17,-0.30,9.90,-1.18,0.17,9.54
-0.74,-0.45,9.96,-1.08,0.10,9.55
-0.77,-0.37,9.97,-1.07,-0.20,9.65
-0.53,-0.41,10.00,-1.16,-0.31,9.58
-0.26,-0.50,9.99,-1.18,-0.19,9.48
-0.33,-0.34,9.95,-0.98,0.06,9.47
-0.51,-0.22,9.95,-1.05,-0.09,9.63
-0.42,-0.19,9.96,-1.14,-0.32,9.73
0.03,-0.29,9.96,-1.10,-0.38,9.79
0.72,-0.13,10.04,-0.85,0.04,9.92
0.46,0.13,10.03,-0.88,0.12,10.04
0.20,0.38,9.97,-1.04,-0.07,10.12
0.35,0.44,9.96,-1.13,-0.30,10.15
1.12,0.32,9.96,-0.89,-0.04,10.15
0.83,0.47,9.98,-0.77,0.11,10.11
0.53,0.74,9.97,-0.91,0.05,9.91
0.56,0.80,9.97,-1.08,-0.14,9.85
1.10,0.46,9.91,-1.12,-0.04,10.01
1.02,0.28,9.94,-0.94,0.20,10.06
0.43,0.16,9.91,-0.92,0.26,10.03
-0.17,0.09,9.89,-1.07,0.08,10.02
-0.07,-0.50,9.95,-1.20,-0.02,10.36
-0.29,-0.78,9.92,-1.18,0.25,10.27
-1.01,-0.91,9.91,-1.15,0.38,10.00
-1.87,-0.91,9.92,-0.95,0.21,9.92
-2.23,-0.60,10.00,-1.03,-0.29,9.83
-1.93,-0.55,10.05,-1.01,-0.21,9.52
-1.54,-0.47,10.08,-1.06,0.08,9.29
-1.63,-0.20,10.10,-1.06,0.25,9.12
-2.46,0.27,10.07,-0.96,-0.38,9.16
-1.73,0.49,10.10,-1.01,-0.68,9.14
-0.83,0.46,10.14,-1.03,-0.54,9.17
-0.23,0.48,10.18,-0.98,-0.11,9.25
-0.88,0.65,10.11,-1.11,0.08,9.61
-1.14,0.45,10.05,-1.31,-0.42,9.76
-0.62,0.00,9.99,-1.32,-0.70,9.68
0.49,-0.38,9.97,-1.14,-0.52,9.49
1.02,-0.23,9.96,-0.90,0.16,9.59
0.50,-0.04,9.91,-1.35,-0.01,9.79
0.24,-0.48,9.79,-1.55,-0.32,10.11
0.62,-1.21,9.69,-1.49,-0.44,10.35
1.74,-1.94,9.69,-0.93,-0.04,9.96
1.71,-1.51,9.81,-0.71,0.26,10.19
0.99,-0.83,9.90,-0.88,0.22,10.47
0.37,-0.35,9.89,-1.14,-0.02,10.77
0.30,-0.22,9.90,-1.10,-0.35,10.91
0.50,0.00,9.91,-0.87,-0.15,10.83
0.17,0.49,9.98,-0.47,0.08,10.71
-0.52,1.16,10.04,-0.59,0.11,10.51
-0.68,1.41,10.16,-1.25,-0.43,10.12
-0.29,1.01,10.07,-1.02,-0.39,9.97
-0.07,1.00,9.99,-0.77,-0.12,9.79
-0.22,1.06,10.03,-0.71,0.01,9.46
-0.24,0.58,10.06,-1.08,-0.21,9.29
0.22,0.14,10.05,-1.20,-0.27,9.24
0.40,-0.40,10.00,-1.24,-0.22,9.28
0.44,-0.84,9.93,-1.09,-0.16,9.28
0.62,-1.38,9.93,-1.07,-0.12,8.85
0.82,-1.43,9.94,-1.05,-0.10,8.73
0.79,-1.32,9.99,-1.04,-0.06,8.68
0.76,-1.02,9.98,-1.04,-0.06,8.80
0.65,-0.77,9.98,-1.15,-0.09,8.94
1.04,-0.73,9.93,-1.14,-0.07,9.14
1.14,-0.48,9.92,-0.94,0.02,9.36
0.97,-0.03,9.91,-1.13,0.06,9.34
0.89,0.12,9.81,-1.17,-0.01,9.51
0.87,0.28,9.85,-1.04,0.03,9.70
0.69,0.29,9.83,-1.19,0.06,9.73
0.37,0.07,9.72,-1.13,-0.08,9.98
0.38,-0.07,9.66,-1.22,-0.21,10.33
0.36,-0.30,9.60,-1.35,-0.11,10.56
0.21,-0.62,9.56,-1.23,0.09,10.89
-0.27,-1.01,9.61,-1.13,0.11,10.96
-0.69,-1.24,9.58,-0.96,-0.04,10.76
-0.75,-0.69,9.52,-0.96,-0.30,10.36
-0.55,-0.30,9.51,-0.97,-0.20,10.57
-0.55,-0.24,9.52,-1.10,0.04,10.91
-1.48,-0.64,9.49,-0.98,-0.07,10.66
-1.59,-0.62,9.50,-0.73,-0.24,10.39
-1.36,-0.20,9.52,-0.74,-0.31,10.02
-1.08,0.11,9.52,-0.97,-0.29,9.90
-0.88,-0.09,9.39,-1.27,-0.22,10.14
-0.79,-0.59,9.41,-1.01,-0.06,9.98
-0.72,-0.72,9.48,-0.60,-0.02,9.83
-0.86,-0.31,9.56,-0.52,-0.05,9.54
-1.19,0.25,9.57,-0.68,-0.15,9.27
-0.82,1.00,9.43,-1.10,-0.43,9.43
-0.10,0.85,9.39,-1.18,-0.16,9.49
0.15,0.39,9.41,-0.86,0.19,9.59
-0.88,0.21,9.55,-0.82,-0.03,9.13
-1.10,0.27,9.52,-0.92,-0.49,9.13
-0.40,0.29,9.42,-1.13,-0.66,9.29
0.55,0.04,9.35,-1.45,-0.34,9.44
-0.00,-0.99,9.45,-0.86,0.54,9.63
-1.12,-0.96,9.48,-0.74,0.21,9.45
-1.55,-0.56,9.47,-0.87,-0.30,9.24
-1.14,-0.47,9.41,-1.26,-0.57,9.18
0.64,-0.71,9.28,-1.20,-0.16,9.64
0.40,-0.77,9.25,-1.02,0.27,9.79
-0.41,-0.72,9.20,-0.99,0.26,9.78
-0.93,-0.56,9.16,-1.02,-0.12,9.77
-0.07,-0.30,8.98,-1.27,-0.51,9.88
0.38,-0.40,8.92,-1.20,-0.29,10.12
0.35,-0.51,8.83,-1.09,-0.02,10.30
0.09,-0.58,8.78,-1.10,0.05,10.19
0.15,-0.64,8.70,-0.97,-0.47,9.76
0.87,-0.44,8.69,-0.82,-0.47,9.86
1.24,-0.25,8.66,-0.96,-0.22,9.89
1.21,-0.34,8.61,-1.05,-0.02,9.83
1.03,-0.32,8.56,-0.80,-0.00,9.85
0.93,-0.20,8.55,-0.79,-0.20,9.67
1.19,-0.08,8.56,-0.80,-0.38,9.62
1.64,0.08,8.56,-0.76,-0.36,9.71
2.08,0.15,8.59,-0.85,0.05,9.71
1.83,0.23,8.57,-0.71,0.15,9.81
1.20,0.29,8.60,-0.78,0.13,9.77
0.67,0.21,8.55,-0.95,-0.09,9.73
1.04,-0.12,8.63,-0.74,-0.24,9.63
1.24,-0.12,8.70,-0.68,0.02,9.42
1.09,-0.10,8.81,-0.69,0.15,9.30
0.80,-0.00,8.88,-0.69,0.09,9.21
0.60,0.58,8.98,-0.70,-0.28,9.41
0.94,0.75,9.04,-0.86,-0.25,9.75
1.10,0.53,9.14,-0.89,-0.12,10.34
0.87,0.14,9.21,-0.95,0.09,10.61
-0.44,-0.15,9.37,-0.78,0.23,10.53
-1.05,0.05,9.36,-0.96,-0.09,10.36
-1.04,-0.04,9.42,-1.16,-0.39,10.23
-0.52,-0.37,9.43,-1.09,-0.47,10.26
-0.21,-0.45,9.53,-0.91,0.02,9.94
-0.61,-0.36,9.53,-0.97,-0.04,9.71
-0.46,-0.15,9.53,-1.04,-0.31,9.77
-0.07,-0.06,9.52,-1.33,-0.39,9.59
1.14,-0.48,9.42,-1.10,-0.17,9.73
1.17,-0.46,9.45,-1.08,0.16,9.75
0.61,-0.53,9.45,-1.19,0.19,9.86
0.00,-0.73,9.39,-1.33,-0.14,10.00
0.61,-1.15,9.35,-1.30,-0.40,9.89
0.81,-1.14,9.36,-1.08,-0.05,9.94
0.61,-0.98,9.45,-1.02,0.21,9.90
0.10,-0.86,9.42,-0.92,0.19,10.00
-0.30,-0.20,9.48,-1.10,-0.16,10.01
-0.26,-0.00,9.48,-1.07,-0.22,10.04
-0.27,0.20,9.48,-0.90,-0.10,10.16
-0.51,0.43,9.44,-0.83,0.06,10.00
-0.87,0.78,9.47,-0.87,-0.02,9.73
-1.01,0.72,9.44,-1.03,-0.16,9.62
-0.83,0.54,9.39,-1.13,-0.29,9.64
-0.66,0.29,9.34,-0.94,-0.32,9.79
-0.69,-0.19,9.44,-0.70,-0.15,9.37
-0.48,-0.06,9.46,-0.63,-0.12,9.38
-0.33,0.18,9.50,-0.87,-0.07,9.34
-0.44,0.04,9.47,-1.02,-0.18,9.50
-0.16,-0.32,9.43,-1.08,-0.19,9.67
-0.13,-0.61,9.46,-0.90,-0.14,9.62
-0.04,-0.55,9.52,-0.67,-0.07,9.75
-0.28,-0.27,9.59,-1.16,-0.08,9.99
-0.20,-0.48,9.59,-1.29,-0.10,10.24
-0.27,-0.85,9.61,-1.27,-0.04,10.26
-0.46,-1.06,9.57,-1.04,0.03,10.10
-0.71,-1.05,9.56,-0.92,-0.03,9.87
-0.30,-1.03,9.59,-1.24,-0.35,9.83
0.06,-1.32,9.57,-1.25,-0.23,9.94
0.08,-1.43,9.57,-1.21,0.06,9.99
-0.49,-1.35,9.56,-0.98,0.12,9.84
-0.63,-0.46,9.55,-1.02,-0.38,9.71
-0.11,-0.14,9.53,-1.16,-0.40,9.89
0.10,-0.01,9.47,-1.16,-0.08,10.29
-0.28,-0.04,9.47,-1.06,0.17,10.45
-1.26,-0.06,9.50,-0.92,-0.32,9.94
-0.59,-0.03,9.53,-1.19,-0.47,9.60
0.04,-0.23,9.46,-1.14,-0.25,9.59
0.14,-0.39,9.39,-1.05,0.13,9.72
-1.01,-0.99,9.34,-1.02,-0.28,9.53
-0.65,-1.21,9.32,-0.87,-0.67,9.56
0.33,-1.20,9.38,-0.78,-0.44,9.47
0.72,-1.05,9.43,-0.73,0.14,9.44
-0.58,-0.44,9.45,-0.86,0.15,9.36
-0.90,-0.18,9.43,-0.74,-0.35,9.27
-0.15,0.32,9.45,-0.70,-0.55,9.14
0.63,0.77,9.47,-0.63,-0.37,9.05
0.78,1.49,9.58,-0.59,0.09,9.24
0.40,1.90,9.61,-0.67,0.04,9.66
0.18,1.98,9.60,-0.87,-0.17,9.99
0.44,1.61,9.62,-1.02,-0.24,10.02
0.57,1.14,9.63,-0.91,-0.10,9.97
0.21,1.09,9.66,-0.76,0.04,9.93
0.10,0.82,9.70,-1.02,-0.06,10.19
0.02,0.21,9.70,-1.17,-0.07,10.40
-0.35,-1.09,9.67,-1.19,-0.01,10.19
-0.65,-1.40,9.68,-1.02,-0.20,9.96
-0.42,-1.28,9.68,-0.98,-0.38,9.90
0.03,-1.06,9.71,-1.09,-0.28,9.93
0.08,-1.05,9.75,-1.20,0.08,9.94
-0.32,-0.83,9.74,-1.05,-0.02,9.77
-0.43,-0.34,9.68,-1.10,-0.30,9.70
-0.10,-0.00,9.63,-1.41,-0.48,9.73
0.41,-0.16,9.56,-1.57,-0.44,9.89
0.47,-0.82,9.51,-1.17,0.13,9.90
0.04,-0.86,9.55,-1.18,0.11,9.53
-0.01,-0.84,9.56,-1.17,-0.27,9.30
1.32,-0.34,9.55,-1.10,-0.29,9.71
1.24,-0.36,9.54,-1.31,0.03,9.80
0.78,-0.68,9.49,-1.17,0.04,9.93
0.54,-0.75,9.50,-0.83,-0.10,9.99
0.92,-0.22,9.58,-0.96,-0.11,9.78
0.84,-0.23,9.55,-1.08,-0.10,10.12
0.72,-0.46,9.50,-1.13,-0.09,10.24
0.46,-0.80,9.46,-1.11,-0.03,10.17
0.12,-0.94,9.48,-0.90,0.00,9.78
0.05,-0.39,9.63,-0.60,-0.07,9.67
-0.00,-0.17,9.68,-0.85,-0.10,9.62
-0.06,-0.29,9.68,-0.91,-0.13,9.63
-0.22,0.04,9.66,-0.64,-0.02,9.31
-0.29,0.61,9.70,-0.48,-0.17,9.35
-0.19,1.12,9.77,-0.58,-0.32,9.53
0.02,1.23,9.84,-0.85,-0.34,9.63
0.37,1.23,9.82,-0.64,0.07,10.00
-0.13,1.35,9.82,-0.75,0.13,9.90
-0.29,1.38,9.77,-0.89,-0.15,9.87
-0.03,1.10,9.79,-0.95,-0.40,9.93
0.65,0.59,9.88,-0.78,0.03,10.04
0.16,0.54,9.84,-0.98,0.13,10.05
-0.09,0.32,9.82,-1.34,-0.11,9.97
0.18,-0.24,9.71,-1.34,-0.34,10.12
0.69,-0.87,9.66,-1.12,0.15,9.96
0.06,-0.96,9.66,-0.97,0.13,9.88
-0.31,-0.83,9.66,-1.17,-0.24,9.87
0.08,-0.67,9.62,-1.43,-0.43,9.84
0.73,-0.62,9.53,-1.12,0.07,9.95
0.15,-0.14,9.55,-0.99,0.26,9.70
-0.47,0.35,9.57,-0.94,-0.07,9.53
-0.26,0.82,9.57,-1.20,-0.45,9.48
1.06,0.77,9.45,-1.33,-0.12,9.83
0.74,0.40,9.42,-1.17,0.23,10.04
-0.18,-0.00,9.42,-1.12,0.18,9.98
-0.56,-0.35,9.41,-1.12,-0.12,9.82
0.22,-0.64,9.48,-1.00,-0.20,9.94
0.25,-0.78,9.51,-1.14,0.12,10.00
-0.27,-0.97,9.48,-1.15,0.19,10.09
-0.89,-1.08,9.49,-0.89,0.04,10.09
-1.01,-0.53,9.57,-0.76,-0.30,9.69
-0.70,-0.22,9.59,-0.79,-0.34,9.60
-0.39,0.10,9.58,-0.91,-0.15,9.59
-0.30,0.31,9.56,-1.04,0.05,9.55
-0.86,0.24,9.50,-0.92,-0.08,9.67
-0.97,0.18,9.53,-0.83,-0.39,9.54
-0.52,0.14,9.53,-0.81,-0.54,9.37
0.29,0.20,9.55,-0.84,-0.35,9.41
0.36,0.03,9.57,-1.09,0.32,9.83
-0.36,-0.23,9.54,-0.81,0.22,10.01
-0.71,-0.15,9.64,-0.73,-0.13,9.94
-0.58,0.01,9.68,-0.83,-0.44,9.69
0.30,0.36,9.64,-1.01,0.10,10.23
-0.32,0.29,9.62,-1.15,0.41,10.52
-1.30,-0.14,9.58,-1.24,0.24,10.51
-1.88,-0.65,9.56,-1.15,-0.20,10.20
-0.88,-0.40,9.54,-0.85,-0.23,9.69
-0.75,-0.17,9.54,-1.01,0.09,9.72
-1.24,-0.14,9.51,-1.17,0.19,9.92
-1.80,-0.32,9.50,-1.24,-0.08,9.90
-1.22,-0.23,9.43,-0.94,-0.40,9.34
-0.86,0.08,9.44,-0.79,-0.27,9.10
-0.61,0.50,9.45,-0.82,-0.29,9.32
-0.43,0.72,9.45,-1.11,-0.33,9.59
-0.05,-0.06,9.33,-1.22,-0.24,9.85
-0.07,-0.25,9.35,-0.87,-0.09,9.70
-0.17,-0.06,9.35,-0.81,-0.04,9.53
-0.24,0.10,9.40,-0.82,-0.20,9.66
0.01,-0.11,9.42,-1.21,-0.15,10.22
-0.12,-0.49,9.39,-1.18,0.05,10.19
-0.67,-0.76,9.37,-0.97,0.09,10.01
-1.11,-0.64,9.42,-0.76,-0.07,9.79
-0.82,0.02,9.53,-0.83,-0.28,9.72
-0.84,0.14,9.55,-1.06,-0.23,9.79
-1.00,-0.00,9.53,-1.14,-0.26,9.61
-0.94,-0.09,9.50,-0.99,-0.30,9.51
-0.61,0.45,9.46,-0.78,-0.16,9.36
-0.68,0.47,9.53,-0.79,-0.20,9.68
-0.81,0.40,9.55,-0.96,-0.26,9.85
-0.92,0.20,9.55,-1.10,-0.33,9.78
-0.27,-0.10,9.51,-0.95,-0.18,9.41
-0.24,-0.07,9.50,-0.86,0.04,9.52
-0.63,-0.11,9.47,-1.03,0.04,9.77
-1.09,-0.53,9.45,-1.23,-0.31,9.94
-0.85,-1.08,9.41,-1.25,-0.60,10.01
0.11,-1.45,9.46,-0.85,-0.18,9.61
-0.08,-1.05,9.45,-0.79,0.10,9.69
-0.70,-0.67,9.43,-1.05,-0.10,9.72
-0.32,-0.69,9.28,-1.24,-0.75,9.68
0.61,-0.47,9.26,-1.00,-0.50,9.30
1.01,-0.10,9.28,-0.71,-0.19,9.05
0.97,0.58,9.26,-0.71,-0.10,9.27
0.81,0.67,9.09,-1.49,-0.52,9.88
1.54,-0.01,8.96,-1.40,-0.41,9.95
1.87,-0.52,8.95,-1.04,-0.03,9.71
1.53,-0.54,8.98,-0.74,0.24,9.59
0.56,-0.17,9.03,-1.02,-0.33,10.24
0.73,-0.53,8.92,-1.41,-0.55,10.38
1.13,-1.22,8.88,-1.24,-0.40,10.45
1.16,-1.49,8.89,-0.85,-0.05,10.46
-0.16,-0.88,8.84,-0.66,0.04,10.23
-0.47,-0.63,8.92,-0.83,-0.29,10.27
-0.35,-0.59,8.96,-0.96,-0.56,10.26
0.06,-0.47,8.91,-0.99,-0.43,9.99
-0.10,-0.07,8.88,-0.70,-0.06,9.40
-0.27,0.30,8.82,-0.76,-0.25,9.40
0.05,0.30,8.82,-1.02,-0.51,9.30
0.67,-0.16,8.82,-1.11,-0.51,9.28
1.18,-0.62,8.83,-0.92,-0.29,9.34
0.92,-0.87,8.87,-0.86,-0.04,9.20
0.73,-0.80,8.76,-0.79,-0.25,9.47
0.78,-0.68,8.70,-0.93,-0.38,9.76
1.14,-1.40,8.75,-0.93,-0.11,10.11
0.73,-1.47,8.77,-0.76,-0.03,10.07
0.42,-1.17,8.75,-0.61,-0.07,9.86
0.23,-0.91,8.75,-0.82,-0.23,9.71
0.95,-1.03,8.63,-1.32,-0.29,9.71
1.04,-1.50,8.58,-1.11,-0.09,9.86
0.68,-1.56,8.51,-0.71,0.07,9.92
0.15,-1.38,8.53,-0.92,-0.01,9.57
0.16,-1.39,8.50,-1.14,-0.37,9.46
1.05,-1.75,8.37,-1.20,-0.17,9.99
0.62,-2.01,8.32,-1.15,0.08,10.05
-0.10,-2.20,8.27,-0.94,-0.03,10.03
0.16,-1.71,8.20,-0.96,-0.58,9.90
0.62,-1.62,8.17,-1.06,-0.35,10.02
0.58,-1.64,8.08,-1.05,0.02,10.32
-0.17,-1.85,8.07,-1.01,0.09,10.37
-0.53,-2.03,7.95,-0.90,-0.40,10.17
-0.30,-2.01,7.88,-0.88,-0.38,10.08
-0.07,-1.98,7.78,-0.91,-0.12,10.14
-0.30,-2.10,7.76,-0.93,-0.01,10.20
-0.85,-2.62,7.65,-0.89,-0.15,9.99
-0.92,-2.66,7.54,-0.58,-0.25,9.98
-0.84,-2.39,7.48,-0.65,-0.25,9.82
-0.82,-2.11,7.42,-0.73,-0.23,9.77
-0.96,-2.03,7.36,-0.70,-0.28,10.12
-1.07,-1.88,7.31,-0.55,-0.27,10.06
-1.20,-1.71,7.30,-0.47,-0.22,9.78
-1.08,-1.40,7.26,-0.48,-0.23,9.62
-0.85,-0.94,7.09,-0.60,-0.33,9.96
-0.78,-1.05,7.00,-0.71,-0.26,10.06
-0.88,-1.35,6.89,-0.67,-0.15,9.99
-0.93,-1.55,6.89,-0.55,-0.12,9.73
-0.79,-1.39,6.75,-0.25,-0.22,9.62
-0.77,-1.21,6.70,-0.60,-0.26,9.68
-0.87,-1.47,6.51,-0.82,-0.29,9.76
-0.75,-1.90,6.37,-0.70,-0.25,9.88
-0.94,-2.16,6.28,-0.32,-0.10,9.65
-1.13,-1.89,6.23,-0.27,-0.15,9.57
-1.32,-1.53,6.17,-0.40,-0.21,9.55
-1.36,-1.26,6.06,-0.62,-0.32,9.62
-1.02,-1.41,5.73,-0.74,-0.48,9.83
-0.65,-1.56,5.64,-0.56,-0.29,9.62
-0.44,-1.59,5.55,-0.41,-0.09,9.39
-0.44,-1.27,5.45,-0.37,-0.01,9.32
-0.84,-1.09,5.18,-0.78,-0.29,9.46
-0.66,-1.37,5.04,-0.74,-0.42,9.63
-0.32,-1.64,4.92,-0.64,-0.36,9.51
-0.12,-1.76,4.79,-0.55,-0.18,9.41
-0.44,-1.57,4.56,-0.45,-0.12,9.59
-0.51,-1.56,4.44,-0.71,-0.28,9.87
-0.64,-1.98,4.28,-0.83,-0.44,10.02
-0.41,-2.59,4.15,-0.71,-0.42,9.95
-0.31,-2.61,3.96,-0.25,0.07,9.60
-0.70,-2.36,3.86,-0.35,-0.00,9.58
-0.88,-2.26,3.74,-0.32,-0.32,9.93
-0.66,-2.17,3.68,-0.39,-0.43,9.93
-0.47,-1.93,3.56,-0.01,-0.09,9.70
-0.79,-1.40,3.48,0.06,-0.16,9.69
-0.83,-1.00,3.31,-0.18,-0.37,9.77
-0.47,-1.06,3.19,-0.51,-0.42,9.78
-0.17,-2.09,3.08,-0.09,-0.23,9.88
-0.34,-2.17,3.06,0.13,-0.25,9.74
-0.29,-2.05,2.97,0.09,-0.41,9.61
0.03,-2.02,2.86,-0.08,-0.48,9.69
0.60,-2.12,2.62,-0.25,0.05,10.09
-0.07,-2.27,2.53,-0.00,0.19,10.19
-0.82,-2.18,2.46,0.21,-0.07,10.09
-0.97,-1.93,2.36,0.15,-0.41,9.78
0.06,-1.22,2.13,0.06,-0.21,9.86
-0.32,-1.08,1.97,-0.15,0.18,9.98
-1.18,-1.22,1.82,-0.20,0.17,9.98
-1.76,-1.44,1.65,-0.12,-0.24,9.84
-0.55,-1.54,1.41,0.06,-0.67,9.39
0.06,-1.49,1.29,0.04,-0.30,9.33
-0.11,-1.30,1.11,0.05,0.10,9.36
-0.85,-1.11,0.95,0.04,0.13,9.39
-0.97,-0.97,0.66,0.08,-0.65,9.49
-0.28,-0.93,0.58,0.14,-0.58,9.64
0.06,-0.78,0.46,0.13,-0.18,9.93
-0.45,-0.69,0.32,0.11,0.16,10.14
-1.61,-0.96,0.05,-0.01,-0.20,10.03
-1.35,-1.08,-0.06,0.12,-0.49,9.86
-0.75,-1.04,-0.17,0.25,-0.43,9.62
-0.43,-0.97,-0.26,0.36,-0.16,9.49
-1.07,-0.63,-0.49,0.18,-0.05,9.57
-1.35,-0.64,-0.65,0.17,-0.37,9.76
-1.23,-0.81,-0.74,0.14,-0.59,9.85
-0.70,-1.02,-0.82,0.25,-0.56,9.82
-0.31,-1.01,-0.85,0.39,-0.05,9.86
-0.79,-0.91,-0.97,0.25,-0.06,9.96
-1.05,-0.97,-1.05,0.14,-0.33,10.04
-0.83,-1.25,-1.11,0.18,-0.52,9.98
-0.08,-1.48,-1.10,0.56,-0.17,9.77
-0.28,-1.16,-1.06,0.54,-0.07,9.68
-0.62,-0.88,-1.06,0.58,-0.10,9.77
-0.67,-0.62,-1.06,0.30,-0.21,9.84
-0.77,-0.60,-1.12,0.15,-0.27,9.80
-0.58,-0.72,-1.10,0.49,-0.16,10.04
-0.89,-0.59,-1.11,0.44,-0.05,10.04
-1.33,-0.60,-1.14,0.25,-0.17,10.02
-1.34,-1.00,-1.20,0.16,-0.40,10.20
-1.18,-1.39,-1.22,0.17,-0.25,10.06
-1.17,-1.77,-1.20,0.31,-0.10,9.88
-1.28,-1.90,-1.19,0.41,-0.14,9.61
-1.56,-1.58,-1.25,0.27,-0.23,8.94
-1.44,-1.37,-1.33,0.33,-0.43,8.76
-1.06,-1.17,-1.34,0.38,-0.55,8.66
-0.20,-0.91,-1.37,0.44,-0.55,8.70
0.35,-0.73,-1.39,0.55,-0.39,8.90
0.37,-0.40,-1.45,0.19,-0.05,9.19
0.04,-0.49,-1.57,0.15,-0.17,9.42
0.17,-0.59,-1.64,0.14,-0.36,9.69
0.55,-1.00,-1.76,0.27,-0.17,10.18
0.29,-1.30,-1.79,0.26,0.01,10.16
-0.23,-1.47,-1.84,0.29,-0.00,10.16
-0.45,-1.50,-1.92,0.12,-0.15,10.01
-0.42,-1.58,-2.12,0.46,-0.21,10.08
-0.50,-1.49,-2.17,0.43,-0.14,10.01
-0.83,-1.51,-2.21,0.40,-0.06,9.84
-0.97,-1.48,-2.21,0.39,-0.19,9.73
-1.01,-1.34,-2.29,0.55,-0.34,9.66
-0.50,-0.89,-2.36,0.50,-0.27,9.58
-0.58,-0.84,-2.46,0.67,-0.26,9.66
-0.56,-0.67,-2.48,0.61,-0.31,9.70
-0.48,-0.49,-2.63,0.70,-0.49,9.73
-0.19,-0.35,-2.64,0.72,-0.47,9.98
-0.09,-0.43,-2.72,0.58,-0.36,10.03
0.21,-0.72,-2.76,0.53,-0.24,10.24
-0.27,-1.06,-2.99,0.53,-0.13,10.54
-0.62,-1.38,-3.05,0.46,-0.16,10.38
-0.81,-1.80,-3.12,0.55,-0.32,10.19
-0.48,-2.03,-3.15,0.65,-0.43,9.95
0.23,-1.87,-3.36,0.66,-0.25,9.76
0.19,-1.74,-3.43,0.45,-0.13,9.71
0.02,-1.86,-3.57,0.39,-0.19,9.68
0.02,-2.00,-3.64,0.52,-0.38,9.75
0.53,-1.60,-3.78,0.71,-0.29,9.58
0.53,-1.32,-3.80,0.62,-0.19,9.42
0.32,-0.84,-3.97,0.76,-0.20,9.43
0.20,-0.19,-4.07,0.80,-0.22,9.45
0.02,0.49,-4.42,0.66,-0.29,9.58
0.19,0.43,-4.51,0.54,-0.26,9.62
0.31,0.19,-4.70,0.50,-0.18,9.55
0.21,-0.14,-4.84,0.64,-0.14,9.54
-0.06,-0.35,-5.13,0.68,-0.23,9.47
-0.07,-0.48,-5.29,0.58,-0.25,9.56
-0.14,-0.91,-5.51,0.57,-0.26,9.66
-0.08,-1.38,-5.68,0.62,-0.20,9.90
-0.37,-2.16,-5.95,0.48,-0.08,9.85
-0.66,-2.65,-6.07,0.64,-0.25,9.78
-0.57,-2.71,-6.23,0.78,-0.45,9.69
-0.28,-2.56,-6.34,0.85,-0.41,9.58
-0.26,-2.13,-6.61,0.98,-0.12,9.63
-0.47,-1.71,-6.68,0.96,-0.09,9.64
-0.65,-1.37,-6.77,0.87,-0.21,9.63
-0.66,-1.13,-6.86,1.05,-0.36,9.69
-0.04,-0.68,-7.10,1.02,-0.39,9.71
0.14,-0.54,-7.24,1.05,-0.23,9.74
0.03,-0.44,-7.42,1.02,-0.09,9.80
-0.26,-0.43,-7.55,1.01,-0.17,9.82
-0.16,-0.75,-7.79,1.20,-0.48,9.97
0.19,-0.99,-7.83,1.28,-0.51,10.01
0.53,-0.96,-7.97,1.24,-0.29,10.05
0.45,-0.80,-8.14,1.21,0.00,10.07
-0.59,-0.90,-8.45,1.24,-0.34,10.11
-0.26,-1.00,-8.59,1.20,-0.54,10.08
0.42,-1.35,-8.70,1.11,-0.47,9.96
0.72,-1.66,-8.85,1.25,-0.19,10.06
0.16,-1.57,-9.09,1.29,0.02,9.91
-0.28,-1.40,-9.25,1.30,-0.14,9.84
-0.24,-1.19,-9.40,1.10,-0.39,9.77
0.17,-0.98,-9.64,1.15,-0.39,9.87
-0.15,-1.00,-9.92,1.12,0.04,10.24
-0.91,-1.06,-10.05,1.33,-0.15,10.16
-1.00,-0.99,-10.11,1.26,-0.52,9.88
-0.50,-0.70,-10.32,1.12,-0.59,9.53
-0.06,0.02,-10.61,1.37,-0.17,9.59
-0.47,0.38,-10.80,1.39,-0.10,9.58
-0.67,0.48,-10.91,1.41,-0.20,9.60
-0.66,0.32,-11.04,1.27,-0.32,9.45
0.25,-0.13,-11.20,1.40,-0.13,9.50
0.10,-0.33,-11.30,1.38,0.02,9.55
-0.42,-0.51,-11.44,1.55,-0.09,9.65
-0.65,-0.48,-11.57,1.53,-0.29,9.68
-0.17,-0.72,-11.61,1.49,-0.24,9.70
-0.09,-0.67,-11.67,1.58,-0.19,9.85
-0.38,-0.50,-11.66,1.61,-0.18,9.85
-0.65,-0.30,-11.76,1.61,-0.23,9.78
-0.31,0.01,-11.76,1.65,-0.23,9.64
-0.20,0.18,-11.73,1.72,-0.11,9.58
-0.37,0.41,-11.67,1.83,-0.12,9.58
-0.71,0.80,-11.68,1.85,-0.23,9.61
-0.43,1.13,-11.66,1.56,-0.24,9.56
-0.05,0.83,-11.67,1.62,-0.19,9.76
0.13,0.55,-11.63,1.65,-0.08,9.89
-0.18,0.38,-11.60,1.72,-0.14,9.97
-0.59,0.33,-11.55,1.82,-0.36,10.01
0.23,0.26,-11.43,1.45,-0.28,9.82
0.31,0.13,-11.47,1.55,-0.02,10.15
-0.42,0.12,-11.52,1.63,0.12,10.44
-1.33,-0.14,-11.48,1.49,-0.47,10.23
-0.54,-0.34,-11.37,1.50,-0.50,10.07
0.04,-0.36,-11.27,1.53,-0.16,9.98
-0.28,-0.21,-11.27,1.45,0.18,9.76
-1.45,0.60,-11.51,1.54,-0.25,9.48
-1.17,0.85,-11.52,1.46,-0.54,9.36
-0.29,0.94,-11.54,1.40,-0.47,9.57
-0.01,0.72,-11.52,1.39,-0.16,9.70
-0.33,0.42,-11.50,1.18,-0.03,9.69
-0.43,0.05,-11.61,1.25,-0.49,9.34
0.31,0.11,-11.71,1.27,-0.44,9.16
0.58,0.25,-11.76,1.66,-0.21,9.38
-0.36,0.97,-11.72,1.53,0.13,9.53
-0.82,1.09,-11.70,1.57,-0.13,9.74
-0.67,1.19,-11.70,1.39,-0.29,9.82
-0.39,1.04,-11.77,1.27,-0.18,9.93
-1.03,0.11,-11.98,1.22,-0.06,10.13
-1.25,-0.35,-11.94,1.39,-0.25,9.99
-0.83,-0.52,-11.88,1.55,-0.36,10.03
-0.63,-0.55,-11.86,1.54,-0.17,9.91
-0.83,-0.57,-11.84,1.62,-0.05,10.00
-1.46,-0.26,-11.87,1.41,-0.27,9.80
-1.11,-0.28,-11.96,1.43,-0.47,9.76
-0.56,-0.04,-11.98,1.71,-0.31,10.01
-0.90,-0.10,-11.86,1.44,-0.12,9.68
-0.87,-0.06,-11.92,1.70,-0.39,9.87
-0.46,0.24,-11.93,1.52,-0.34,9.65
-0.10,0.25,-12.00,1.43,-0.22,9.56
-0.45,0.33,-12.04,1.57,0.01,9.98
-0.80,0.05,-12.08,1.49,-0.18,9.78
-0.58,-0.24,-12.11,1.50,-0.45,9.72
0.09,-0.19,-12.14,1.60,-0.38,9.54
0.40,-0.11,-12.11,1.60,-0.06,9.54
-1.08,0.22,-12.24,1.61,0.01,9.76
-1.03,0.03,-12.26,1.31,-0.35,9.60
-0.31,-0.28,-12.37,1.38,-0.42,9.79
0.02,-1.07,-12.39,1.24,0.29,9.60
-0.80,-1.32,-12.50,1.62,0.15,9.69
-1.19,-1.03,-12.53,1.73,-0.20,9.41
-0.75,-0.66,-12.54,1.61,-0.45,9.03
0.34,0.00,-12.62,1.58,0.05,9.25
-0.14,0.25,-12.71,1.54,0.23,9.38
-0.83,0.47,-12.76,1.56,-0.03,9.51
-0.99,0.63,-12.85,1.49,-0.50,9.33
0.83,0.68,-12.87,1.71,-0.38,9.56
0.93,0.86,-12.89,1.77,0.22,9.80
-0.12,0.95,-12.88,1.70,0.47,10.05
-1.20,1.11,-12.99,1.66,0.14,10.21
-0.42,0.58,-13.07,1.26,-0.41,10.15
0.14,-0.03,-13.17,1.63,-0.13,10.45
-0.14,-0.51,-13.10,1.73,0.27,10.43
-0.81,-0.80,-13.05,1.72,0.26,9.99
-0.93,-0.55,-13.06,1.75,-0.60,9.17
0.06,-0.18,-13.09,1.87,-0.57,9.06
0.64,0.17,-13.05,1.95,-0.17,9.34
0.29,0.45,-13.03,1.91,0.10,9.63
-0.51,0.57,-12.95,1.68,-0.32,9.87
-0.01,0.47,-12.98,1.61,-0.46,9.96
0.65,0.31,-12.99,1.54,-0.23,10.00
0.74,0.07,-13.00,1.55,0.08,10.05
-0.21,0.09,-12.90,1.89,0.05,10.00
-0.23,0.29,-12.89,1.78,-0.14,9.85
0.08,0.51,-12.89,1.70,-0.15,9.87
0.08,0.61,-12.89,1.63,-0.02,10.09
-0.93,0.35,-12.95,1.49,-0.09,10.35
-0.95,-0.06,-12.91,1.54,-0.30,10.31
-0.58,-0.40,-12.84,1.57,-0.34,10.18
-0.39,-0.63,-12.86,1.49,-0.23,9.90
-0.47,-0.57,-12.96,1.54,-0.06,9.54
-0.58,-0.46,-13.00,1.52,-0.07,9.40
-0.47,-0.53,-13.01,1.60,-0.23,9.33
-0.13,-0.56,-12.96,1.74,-0.31,9.35
0.17,-0.16,-12.93,1.40,-0.08,9.21
0.15,-0.18,-13.02,1.34,-0.13,9.19
0.42,0.01,-13.12,1.54,-0.10,9.48
0.39,0.08,-13.13,1.54,-0.02,9.54
0.22,-0.15,-13.16,1.85,-0.22,9.71
0.38,0.30,-13.10,1.80,-0.08,9.66
0.16,0.61,-13.10,1.66,0.09,9.51
-0.15,0.83,-13.11,1.73,0.11,9.68
-0.77,1.32,-13.20,1.72,-0.08,9.91
-0.81,1.22,-13.20,1.89,-0.22,10.11
-0.77,1.09,-13.13,1.88,-0.29,10.16
-0.43,0.91,-13.11,1.72,-0.17,9.98
-0.28,0.61,-13.05,1.69,-0.01,9.97
-0.71,0.35,-13.13,1.64,0.09,10.00
-1.07,0.04,-13.15,1.66,-0.12,10.00
-1.06,-0.37,-13.16,1.74,-0.37,9.88
0.16,-0.94,-13.04,1.63,-0.33,9.36
0.11,-0.93,-13.07,1.73,-0.08,9.37
-0.07,-0.56,-13.09,1.75,0.08,9.47
-0.57,-0.21,-13.14,1.60,-0.36,9.66
0.17,-0.18,-13.08,1.62,-0.38,9.83
0.48,-0.26,-13.00,1.72,-0.17,10.17
0.43,-0.21,-12.98,1.58,0.13,10.27
-0.13,-0.18,-12.99,1.43,0.11,10.03
0.11,0.09,-13.04,1.83,-0.35,9.97
0.46,0.51,-13.00,1.77,-0.20,10.07
0.32,0.63,-12.97,1.80,0.04,10.12
-0.10,0.70,-12.94,1.72,0.10,10.31
-0.51,0.23,-13.02,1.24,-0.25,9.90
-0.18,-0.18,-13.12,1.54,-0.37,10.06
0.04,-0.29,-13.09,1.72,-0.18,10.00
-0.17,-0.40,-13.08,1.69,0.02,9.81
-0.63,-0.48,-13.08,1.64,0.02,9.63
-0.74,-0.35,-13.11,1.57,0.04,9.68
-1.10,-0.30,-13.18,1.51,-0.03,9.77
-1.41,-0.43,-13.26,1.44,-0.21,9.72
-0.68,-0.72,-13.18,1.83,-0.27,9.71
-0.40,-0.55,-13.13,1.65,0.09,9.52
-0.81,-0.36,-13.13,1.59,0.26,9.45
-1.52,-0.03,-13.23,1.71,0.11,9.53
-1.77,0.44,-13.25,1.76,-0.53,9.38
-0.99,0.46,-13.17,1.78,-0.46,9.38
-0.55,0.28,-13.11,1.85,-0.12,9.48
-0.60,0.29,-13.13,1.76,0.10,9.42
-0.76,0.27,-13.13,1.95,-0.43,9.00
0.24,0.56,-13.07,2.19,-0.51,9.05
1.08,1.08,-13.00,2.26,-0.14,9.13
0.87,1.59,-12.90,2.30,0.18,9.37
-0.21,2.66,-12.95,1.87,-0.29,9.58
0.33,2.84,-12.94,1.86,-0.44,9.99
0.93,2.62,-13.01,1.80,-0.15,10.45
0.81,2.05,-12.97,1.65,0.28,10.68
-0.73,0.96,-12.96,1.72,-0.13,10.30
-0.70,0.86,-12.96,1.80,-0.45,9.94
0.14,0.95,-12.98,1.82,-0.28,9.70
0.39,0.94,-12.96,1.83,0.14,9.78
-1.34,1.09,-13.05,1.60,0.31,10.27
-2.03,0.84,-13.02,1.38,-0.09,10.36
-1.74,0.20,-13.00,1.23,-0.47,10.43
-1.06,-0.57,-12.99,1.29,-0.39,10.51
-0.76,-1.02,-12.95,1.33,0.02,10.52
-2.37,-1.08,-13.04,1.60,0.10,10.00
-2.64,-0.59,-13.05,1.60,-0.26,9.73
-2.37,-0.10,-13.08,1.59,-0.40,9.56
-1.81,0.32,-13.06,1.48,-0.06,9.83
-2.05,0.36,-13.07,1.40,0.04,9.84
-2.31,0.22,-13.08,1.35,-0.18,9.60
-2.04,0.08,-13.16,1.40,-0.50,9.35
-0.40,0.36,-13.22,1.67,-0.33,9.05
-0.07,0.58,-13.20,1.66,0.05,9.06
-0.30,0.77,-13.24,1.64,0.23,9.20
-0.81,0.74,-13.29,1.57,0.08,9.25
-0.24,0.28,-13.37,1.67,-0.59,9.28
0.63,0.20,-13.39,1.78,-0.38,9.32
0.76,0.27,-13.31,1.71,0.07,9.49
0.13,0.28,-13.33,1.62,0.30,9.47
-0.47,0.21,-13.39,1.80,-0.32,9.66
0.13,0.12,-13.38,1.79,-0.41,9.48
0.71,-0.04,-13.29,1.85,-0.21,9.52
0.75,0.05,-13.28,2.02,0.03,9.66
-0.27,0.97,-13.23,1.92,0.03,9.69
-0.45,1.28,-13.27,1.80,-0.25,9.84
-0.15,1.45,-13.25,1.90,-0.27,10.28
-0.05,1.50,-13.18,2.01,-0.10,10.81
-0.62,1.25,-13.15,1.68,0.05,10.85
-0.99,0.26,-13.12,1.66,-0.33,10.38
-0.55,0.21,-13.12,1.87,-0.27,10.18
-0.46,0.36,-13.09,1.94,-0.12,9.84
-0.65,0.89,-12.99,2.07,-0.22,9.44
-0.51,1.44,-12.95,1.98,-0.24,9.51
-0.38,1.73,-12.97,1.67,-0.17,9.46
-0.18,1.56,-13.00,1.55,-0.16,9.58
0.05,1.03,-13.08,1.47,-0.16,9.58
0.18,0.63,-13.09,1.50,-0.25,9.41
0.45,0.52,-13.15,1.77,-0.32,9.47
0.65,0.76,-13.16,1.59,-0.18,9.32
0.60,0.69,-13.28,1.65,-0.10,9.57
0.58,0.62,-13.30,1.50,0.00,9.68
0.32,0.42,-13.40,1.30,-0.01,9.68
0.33,0.05,-13.46,1.33,-0.10,9.71
0.83,-0.65,-13.45,1.38,-0.17,9.36
1.10,-0.68,-13.40,1.65,-0.01,9.34
0.91,-0.37,-13.39,1.80,0.15,9.42
0.40,0.11,-13.44,1.69,0.20,9.40
-0.07,0.83,-13.44,1.65,-0.27,9.90
0.23,0.89,-13.39,1.59,-0.26,10.17
0.34,0.79,-13.32,1.45,-0.08,10.35
0.03,0.57,-13.30,1.56,-0.00,10.41
-0.17,0.61,-13.31,1.68,-0.34,9.84
0.24,0.73,-13.28,1.86,-0.35,9.58
0.72,0.98,-13.26,1.95,-0.17,9.52
0.79,1.21,-13.24,1.92,0.00,9.58
0.14,1.15,-13.19,1.79,-0.23,9.74
0.56,0.90,-13.15,1.71,-0.46,9.86
1.20,0.56,-13.15,1.69,-0.36,10.03
1.49,0.22,-13.23,1.67,-0.11,10.18
0.99,-0.16,-13.21,1.69,-0.00,10.31
0.66,-0.24,-13.20,1.71,-0.04,10.36
0.47,-0.38,-13.21,1.73,-0.13,10.35
0.56,-0.43,-13.22,1.69,-0.15,10.23
0.41,-0.20,-13.21,1.67,0.09,10.16
-0.06,-0.07,-13.22,1.56,0.15,10.04
-0.43,-0.07,-13.25,1.63,0.02,9.96
-0.49,-0.05,-13.24,1.64,-0.10,9.83
-0.32,-0.05,-13.27,1.59,-0.07,9.50
-0.41,0.04,-13.26,1.65,0.06,9.55
-0.79,0.14,-13.27,1.55,0.08,9.49
-1.24,-0.01,-13.28,1.55,-0.10,9.45
-0.66,-0.16,-13.29,1.51,-0.28,9.50
-0.49,-0.31,-13.35,1.58,-0.09,9.58
-0.70,-0.35,-13.35,1.59,0.13,9.68
-1.19,-0.35,-13.29,1.58,0.07,9.58
-1.05,0.01,-13.26,1.86,-0.31,9.50
-0.63,0.43,-13.25,1.84,-0.16,9.41
-0.57,0.66,-13.25,1.89,0.09,9.51
-0.89,1.08,-13.22,1.84,0.21,9.70
-1.56,1.70,-13.23,1.93,-0.16,9.74
-1.20,1.97,-13.16,2.00,-0.27,9.92
-0.98,2.15,-13.03,1.95,-0.12,9.98
-1.24,2.15,-13.02,1.81,-0.06,10.01
-1.38,1.78,-13.05,1.76,-0.38,9.96
-0.88,1.58,-13.09,1.73,-0.43,9.99
-0.49,1.27,-13.07,1.70,-0.27,10.01
-0.41,0.89,-13.01,1.74,-0.10,10.02
-0.62,0.41,-12.90,1.86,-0.22,10.02
-0.33,0.39,-12.88,1.73,-0.27,9.90
0.01,0.44,-12.82,1.83,-0.19,10.00
0.05,0.75,-12.84,1.85,0.06,10.14
-0.71,0.94,-12.80,1.72,-0.10,10.07
-0.58,1.15,-12.81,1.77,-0.29,10.23
-0.28,1.43,-12.77,1.61,-0.30,10.14
-0.20,1.37,-12.78,1.50,-0.16,10.12
-0.52,0.94,-12.82,1.40,-0.05,10.00
-0.72,0.69,-12.89,1.45,-0.15,9.97
-0.72,0.52,-12.88,1.42,-0.25,9.78
-0.57,0.23,-12.83,1.38,-0.28,9.59
-0.03,-0.34,-12.84,1.45,-0.05,9.38
-0.09,-0.33,-12.85,1.51,0.12,9.40
-0.50,-0.14,-12.85,1.52,0.17,9.31
-0.89,0.02,-12.83,1.52,-0.00,9.28
-0.65,0.15,-12.85,1.34,-0.32,9.16
-0.24,0.16,-12.89,1.33,-0.18,9.28
-0.23,0.15,-12.92,1.46,0.05,9.38
-0.56,0.12,-12.89,1.55,0.12,9.45
-0.85,0.18,-12.84,1.58,-0.25,9.30
-0.52,0.30,-12.83,1.66,-0.30,9.49
-0.36,0.45,-12.92,1.47,-0.14,9.64
-0.52,0.25,-12.94,1.25,0.04,9.76
-0.69,-0.72,-12.91,1.55,-0.12,10.15
-0.60,-1.13,-12.78,1.53,-0.26,9.95
-0.30,-1.34,-12.74,1.63,-0.33,9.76
0.17,-1.26,-12.69,1.75,-0.24,9.64
0.20,-0.39,-12.64,1.78,-0.05,9.55
0.16,-0.01,-12.58,1.89,-0.13,9.55
0.39,0.35,-12.47,1.97,-0.25,9.59
0.85,0.78,-12.35,1.90,-0.29,9.43
1.61,1.84,-12.22,2.08,-0.14,9.32
1.51,2.64,-12.20,2.11,0.06,9.46
0.98,3.37,-12.21,2.07,0.08,9.75
0.45,3.78,-12.24,1.99,-0.09,10.09
0.64,3.33,-12.10,1.65,-0.18,10.74
0.62,2.46,-12.05,1.60,0.05,10.99
0.29,1.58,-11.99,1.50,0.18,11.01
-0.48,0.83,-12.03,1.49,0.09,10.75
-0.87,0.36,-12.05,1.58,-0.14,10.39
-0.28,-0.05,-11.94,1.69,-0.18,10.09
-0.23,-0.09,-11.83,1.66,0.22,10.08
-0.99,-0.24,-11.73,1.56,0.25,10.03
-1.37,-0.22,-11.69,1.15,-0.54,9.30
-0.46,-0.25,-11.71,1.35,-0.60,9.15
0.48,0.00,-11.66,1.43,-0.19,9.17
0.18,0.34,-11.59,1.52,0.24,9.17
-1.09,1.22,-11.53,1.43,-0.17,9.07
-0.65,1.60,-11.46,1.37,-0.49,9.19
0.12,1.96,-11.47,1.21,-0.31,9.56
0.14,1.90,-11.48,1.22,0.11,9.96
-0.51,1.46,-11.44,1.19,0.27,10.21
-0.75,0.44,-11.28,1.36,-0.27,9.72
-0.22,0.33,-11.21,1.51,-0.28,9.53
0.04,0.60,-11.15,1.51,-0.02,9.32
-0.84,1.16,-10.99,1.56,0.15,9.63
-1.11,1.20,-10.85,1.53,-0.04,9.85
-0.83,0.93,-10.69,1.38,-0.16,9.98
-0.44,0.51,-10.53,1.29,-0.20,10.07
-0.40,0.16,-10.36,1.30,-0.11,9.78
-0.29,0.20,-10.24,1.43,-0.23,9.59
-0.10,0.46,-10.17,1.70,-0.28,9.68
0.07,0.94,-10.00,1.64,-0.21,9.75
0.26,1.22,-9.69,1.41,-0.18,9.92
0.53,1.32,-9.62,1.21,-0.18,10.05
0.49,1.29,-9.57,1.28,-0.10,10.20
0.44,1.21,-9.42,1.40,-0.04,10.34
0.10,1.19,-9.13,1.58,-0.14,10.34
0.27,1.37,-8.90,1.59,-0.12,10.28
0.27,1.66,-8.74,1.46,-0.00,10.21
-0.09,1.88,-8.64,1.32,0.12,10.10
-0.59,2.01,-8.42,1.30,-0.13,10.03
-0.44,1.94,-8.28,1.30,-0.18,9.84
-0.23,1.83,-8.07,1.38,-0.11,9.77
-0.36,1.91,-7.89,1.47,0.03,9.74
-0.96,2.27,-7.65,1.14,-0.05,9.31
-0.82,2.43,-7.54,1.23,-0.12,9.45
-0.82,2.55,-7.37,1.23,-0.00,9.56
-0.94,2.53,-7.18,1.24,0.11,9.67
-1.73,2.48,-6.81,1.08,-0.05,9.66
-1.72,2.45,-6.65,0.99,-0.19,9.56
-1.48,2.46,-6.54,1.03,-0.10,9.65
-1.46,2.53,-6.34,1.05,0.08,9.79
-2.29,2.41,-5.96,0.96,-0.11,9.70
-1.96,2.36,-5.71,1.11,-0.35,9.62
-1.39,2.46,-5.47,1.06,-0.37,9.50
-0.91,2.62,-5.27,0.92,-0.19,9.37
-0.96,2.79,-4.91,0.91,0.05,9.52
-1.22,2.84,-4.77,0.88,-0.26,9.49
-0.83,2.80,-4.55,0.87,-0.50,9.39
0.16,2.74,-4.28,0.87,-0.43,9.39
0.75,2.62,-3.79,0.78,0.08,9.48
0.54,2.68,-3.62,0.65,0.08,9.48
0.35,2.69,-3.48,0.67,-0.13,9.51
0.55,2.76,-3.30,0.77,-0.29,9.55
1.39,2.79,-2.94,0.57,-0.13,9.58
1.46,2.83,-2.72,0.53,0.07,9.75
1.24,2.88,-2.58,0.44,0.22,9.94
0.83,2.68,-2.39,0.31,0.24,9.97
0.21,2.41,-2.12,0.58,-0.12,10.35
0.07,2.41,-1.86,0.42,-0.20,10.20
0.05,2.24,-1.71,0.26,-0.25,10.13
0.18,2.07,-1.55,0.28,-0.09,10.20
-0.32,1.55,-1.18,0.19,0.20,10.10
-0.74,1.27,-1.00,0.21,-0.01,10.01
-0.75,1.09,-0.92,0.23,-0.32,9.76
-0.29,0.99,-0.77,0.26,-0.41,9.55
0.26,1.13,-0.39,0.15,0.01,9.61
0.04,1.15,-0.23,0.25,0.02,9.76
-0.21,1.34,-0.07,0.30,-0.07,9.91
-0.31,1.57,0.07,0.14,-0.08,9.77
-0.45,1.76,0.28,0.27,-0.15,9.80
-0.55,2.10,0.40,0.31,-0.22,9.83
-0.54,2.41,0.50,0.00,-0.29,9.66
-0.21,2.37,0.59,-0.06,-0.33,9.66
0.13,2.09,0.81,0.03,-0.02,9.75
-0.01,1.91,0.91,-0.00,0.05,9.57
-0.28,1.66,0.99,0.13,-0.07,9.53
-0.18,1.49,1.10,0.12,-0.25,9.36
0.71,1.31,1.40,0.14,-0.09,9.49
0.52,1.19,1.53,0.14,0.14,9.64
-0.00,1.19,1.63,0.14,0.15,9.87
-0.39,1.28,1.77,0.12,-0.09,9.95
0.03,1.42,2.09,0.17,-0.29,10.13
0.21,1.54,2.21,0.09,-0.13,10.15
0.11,1.80,2.25,0.00,0.11,10.16
-0.57,1.94,2.35,0.03,0.10,10.15
-0.92,2.11,2.42,-0.07,-0.49,10.12
-0.42,1.98,2.56,0.01,-0.49,10.13
0.01,1.92,2.59,-0.07,-0.11,10.07
-0.27,1.88,2.58,-0.12,0.27,9.94
-1.27,1.84,2.68,-0.20,-0.19,9.89
-1.06,1.67,2.74,-0.20,-0.54,10.00
-0.55,1.45,2.77,-0.23,-0.47,9.88
-0.17,1.23,2.83,-0.13,-0.13,9.74
-0.88,1.26,2.95,-0.27,0.23,9.63
-1.28,1.13,3.02,-0.39,-0.09,9.50
-1.13,0.93,3.00,-0.40,-0.51,9.40
-0.49,0.82,3.05,-0.32,-0.62,9.27
0.23,0.80,3.10,-0.23,-0.38,9.29
-0.07,1.03,3.20,-0.29,0.20,9.42
-0.62,1.22,3.23,-0.42,0.02,9.54
-0.79,1.15,3.28,-0.41,-0.31,9.64
0.46,0.81,3.42,-0.36,-0.23,9.69
0.55,0.81,3.53,-0.26,0.17,9.73
-0.13,0.88,3.58,-0.28,0.32,9.80
-0.80,0.99,3.64,-0.33,0.03,9.85
-0.57,0.93,3.82,-0.31,-0.39,9.95
-0.33,0.89,3.96,-0.28,-0.18,9.93
-0.46,0.86,4.10,-0.20,0.06,9.85
-0.96,0.93,4.24,-0.02,0.11,9.92
-1.42,1.16,4.42,-0.10,-0.08,9.96
-1.22,1.02,4.62,-0.25,-0.42,10.03
-1.02,0.89,4.73,-0.22,-0.25,10.09
-1.02,0.85,4.88,-0.33,-0.01,10.02
-1.65,0.58,5.11,-0.28,-0.02,10.00
-1.74,0.43,5.24,-0.30,-0.18,9.82
-1.72,0.38,5.36,-0.29,-0.41,9.63
-1.27,0.46,5.45,-0.44,-0.55,9.49
-0.42,0.63,5.60,-0.44,0.01,9.71
-0.81,0.56,5.69,-0.56,0.09,9.67
-1.27,0.51,5.77,-0.26,-0.18,9.70
-1.12,0.86,5.91,-0.14,-0.53,9.59
-0.52,1.36,6.01,-0.27,-0.56,9.24
0.50,2.34,6.22,-0.43,-0.17,9.53
0.42,2.50,6.30,-0.44,-0.06,9.75
0.22,2.35,6.39,-0.45,-0.09,9.90
0.42,1.75,6.60,-0.44,-0.29,9.62
0.81,1.61,6.71,-0.49,-0.12,9.74
0.67,1.40,6.77,-0.64,0.16,9.88
0.00,0.91,6.91,-0.81,0.25,10.01
-0.79,-0.20,7.08,-0.78,-0.18,9.94
-0.66,-0.50,7.26,-0.70,-0.27,9.65
-0.51,-0.41,7.35,-0.42,-0.15,9.58
-0.72,0.07,7.53,-0.40,0.01,9.52
-1.30,0.78,7.66,-0.82,-0.19,9.63
-1.20,0.93,7.80,-0.85,-0.28,9.63
-1.05,1.10,7.87,-0.78,-0.21,9.49
-1.13,1.43,7.92,-0.45,-0.13,9.61
-1.35,2.11,8.18,-0.80,-0.12,9.77
-1.38,2.07,8.20,-0.84,-0.15,10.07
-1.67,1.90,8.28,-0.80,-0.18,10.18
-1.59,1.75,8.39,-0.78,-0.28,10.11
-1.21,1.25,8.60,-0.62,-0.28,9.81
-0.98,1.29,8.73,-0.60,-0.19,9.71
-0.97,1.20,8.79,-0.70,-0.21,9.62
-0.95,1.01,8.83,-0.91,-0.33,9.70
-0.41,0.43,8.95,-0.77,-0.45,9.76
-0.16,0.43,9.03,-0.76,-0.33,9.75
-0.10,0.42,9.10,-0.87,-0.24,9.49
-0.00,0.31,9.14,-0.91,-0.19,9.60
0.13,0.22,9.19,-1.12,-0.13,9.74
-0.03,-0.04,9.24,-1.08,-0.22,9.73
0.00,-0.16,9.25,-1.00,-0.33,9.57
0.34,-0.15,9.33,-0.93,-0.35,9.47
0.56,0.03,9.29,-1.20,-0.05,9.67
0.29,-0.20,9.35,-1.29,0.01,9.89
-0.12,-0.52,9.35,-1.17,-0.15,10.08
-0.30,-0.72,9.40,-1.06,-0.34,9.99
0.17,-0.54,9.49,-0.76,-0.51,9.73
0.53,-0.12,9.61,-0.82,-0.30,9.81
0.58,0.25,9.59,-1.00,-0.07,9.96
0.15,0.40,9.54,-0.94,0.01,10.32
-0.48,0.49,9.60,-0.96,-0.39,10.18
-0.17,0.49,9.61,-0.87,-0.54,10.08
0.23,0.69,9.58,-0.90,-0.38,9.79
0.43,0.75,9.58,-1.06,-0.14,9.50
0.45,0.27,9.52,-1.03,-0.05,9.49
0.23,-0.01,9.52,-0.95,-0.13,9.40
0.01,-0.20,9.51,-0.89,-0.27,9.26
0.05,-0.25,9.51,-0.98,-0.43,9.17
1.09,-0.53,9.42,-1.10,-0.42,9.28
1.49,-0.63,9.43,-1.04,-0.12,9.57
1.03,-0.70,9.43,-0.97,0.14,9.77
0.30,-0.79,9.46,-0.98,0.02,9.79
0.51,-0.76,9.51,-0.90,-0.49,9.68
1.07,-0.49,9.56,-0.97,-0.18,9.65
0.87,-0.36,9.56,-0.94,0.19,9.83
0.19,-0.38,9.58,-0.98,0.22,9.94
-0.23,-0.47,9.65,-0.82,-0.49,9.94
0.29,-0.35,9.69,-0.89,-0.46,9.84
0.57,-0.19,9.71,-0.76,-0.22,10.11
0.29,0.02,9.78,-0.79,-0.00,10.42
-0.47,-0.15,9.83,-0.93,-0.17,10.30
-0.41,-0.07,9.84,-0.77,-0.31,10.17
-0.34,0.21,9.84,-0.68,-0.31,9.94
-0.32,0.54,9.85,-0.78,-0.32,9.83
0.05,0.82,9.93,-0.78,-0.38,9.84
0.40,0.84,9.97,-0.87,-0.21,9.71
0.34,0.84,9.96,-0.77,-0.01,9.67
0.01,0.86,9.96,-0.85,-0.08,9.58
0.36,0.71,9.90,-0.87,-0.63,9.63
1.02,0.53,9.95,-0.95,-0.43,9.60
1.40,0.25,9.98,-1.00,0.03,9.71
0.94,-0.03,10.01,-1.01,0.29,9.90
-0.20,-0.56,9.97,-1.11,-0.41,10.05
0.20,-0.87,10.02,-1.29,-0.66,10.11
0.74,-1.17,10.00,-1.19,-0.42,10.10
0.71,-1.29,10.10,-0.94,0.06,10.15
-0.63,-0.57,10.21,-0.85,0.00,9.96
-0.71,-0.21,10.31,-1.12,-0.44,10.01
-0.15,0.04,10.32,-1.24,-0.56,9.93
0.31,0.20,10.37,-1.01,-0.33,9.98
-0.34,1.03,10.45,-0.80,0.03,9.82
-0.56,1.19,10.52,-1.04,-0.20,9.95
-0.42,1.09,10.51,-1.15,-0.39,10.16
-0.37,0.52,10.61,-1.19,-0.12,9.91
-0.87,0.35,10.61,-0.94,-0.17,9.83
-0.91,0.33,10.74,-0.89,-0.39,9.79
-0.57,0.23,10.78,-0.98,-0.46,9.76
-0.20,0.07,10.83,-1.13,-0.19,9.79
-1.00,-0.56,10.86,-1.15,-0.06,9.79
-1.14,-0.82,10.90,-1.21,-0.34,9.70
-0.85,-1.05,10.91,-1.19,-0.51,9.50
-0.29,-1.15,11.01,-0.97,-0.37,9.40
-0.25,-0.61,11.15,-0.98,0.01,9.35
-0.60,-0.35,11.19,-1.16,-0.21,9.50
-0.54,-0.25,11.16,-1.34,-0.53,9.58
0.18,-0.26,11.16,-1.27,-0.56,9.48
0.61,0.19,11.26,-0.77,0.03,9.35
0.26,0.65,11.36,-0.88,-0.01,9.39
-0.03,0.77,11.42,-1.25,-0.40,9.65
0.41,0.64,11.38,-1.40,-0.61,9.85
1.07,0.25,11.41,-1.39,-0.38,9.82
0.65,0.05,11.43,-0.75,0.29,9.72
-0.11,0.31,11.48,-0.80,-0.01,9.87
-0.28,0.43,11.46,-1.10,-0.53,9.92
1.18,-0.18,11.44,-1.42,-0.28,10.07
1.10,-0.41,11.42,-1.12,0.25,10.13
-0.01,-0.41,11.41,-0.83,0.32,10.20
-0.90,-0.16,11.45,-1.01,-0.17,10.09
0.17,-0.46,11.50,-1.27,-0.71,9.78
0.93,-0.42,11.48,-1.17,-0.19,9.80
0.59,-0.26,11.47,-1.24,0.26,9.80
-0.39,-0.41,11.43,-1.30,0.06,9.92
-0.80,-0.66,11.39,-1.24,-0.47,10.00
0.87,-0.78,11.49,-1.18,-0.41,9.70
0.98,-0.74,11.50,-1.03,0.01,9.83
0.44,-0.42,11.49,-0.99,0.11,10.13
-0.62,-0.12,11.56,-1.41,-0.16,10.26
-0.67,-0.26,11.51,-1.24,-0.29,10.25
-0.64,-0.12,11.54,-0.84,-0.27,10.28
-0.86,0.31,11.56,-0.92,-0.18,9.98
-0.78,0.41,11.56,-1.17,-0.38,9.89
-0.53,0.25,11.58,-1.16,-0.24,9.80
-0.60,0.14,11.57,-1.07,-0.10,9.56
-0.91,0.21,11.56,-0.87,-0.22,9.21
0.04,0.74,11.62,-0.95,-0.69,9.00
0.95,0.95,11.59,-1.08,-0.39,9.16
1.16,0.86,11.62,-1.23,0.01,9.35
0.56,0.58,11.60,-1.15,0.07,9.43
0.31,0.43,11.59,-1.16,-0.65,9.21
1.24,0.40,11.56,-0.97,-0.64,9.31
2.08,0.50,11.66,-0.94,-0.23,9.67
1.77,0.58,11.75,-1.17,0.24,9.87
0.02,0.36,11.67,-1.16,-0.33,10.28
0.32,0.32,11.70,-1.12,-0.57,10.24
0.95,0.34,11.74,-1.12,-0.29,10.22
0.81,0.39,11.74,-1.04,0.22,10.25
-0.98,0.54,11.83,-1.21,0.04,10.32
-1.28,0.39,11.80,-1.46,-0.49,10.18
-0.71,0.14,11.74,-1.35,-0.64,9.96
-0.05,0.08,11.71,-1.13,-0.25,9.85
-1.09,0.47,11.78,-1.13,0.10,9.71
-1.50,0.49,11.76,-1.20,-0.43,9.87
-1.04,0.35,11.75,-1.44,-0.78,9.87
-0.24,0.01,11.75,-1.63,-0.68,9.57
-0.00,-0.22,11.61,-1.17,0.12,9.60
-0.69,-0.10,11.59,-1.31,-0.04,9.63
-0.80,-0.37,11.58,-1.45,-0.56,9.83
-0.13,-0.87,11.63,-1.53,-0.82,9.89
1.09,-1.51,11.57,-1.35,0.05,9.56
0.47,-1.36,11.55,-1.15,0.20,9.82
-0.17,-1.14,11.56,-1.26,-0.17,10.05
-0.02,-1.25,11.53,-1.46,-0.51,10.11
0.98,-1.31,11.64,-0.97,-0.07,9.75
0.58,-0.57,11.64,-0.89,0.24,9.64
-0.18,0.10,11.58,-1.15,0.01,9.74
-0.57,0.15,11.51,-1.45,-0.52,9.91
0.92,-0.26,11.52,-1.07,-0.29,9.80
0.71,-0.15,11.57,-0.83,0.25,9.50
-0.17,0.31,11.60,-0.78,0.19,9.48
-0.81,0.75,11.66,-1.01,-0.37,9.59
0.54,0.32,11.54,-1.29,-0.62,9.69
0.92,0.27,11.52,-0.75,-0.16,9.76
0.55,0.73,11.62,-0.59,0.19,9.62
-0.16,1.07,11.66,-0.86,-0.10,9.62
0.85,0.95,11.60,-1.26,-0.74,10.15
1.56,0.63,11.58,-1.32,-0.22,10.17
1.04,0.17,11.48,-1.12,0.27,10.10
0.05,0.01,11.40,-0.96,0.19,10.10
0.11,-0.22,11.37,-1.24,-0.65,10.04
0.76,-0.56,11.36,-1.25,-0.43,10.21
0.67,-0.83,11.39,-1.23,0.07,10.07
-0.18,-0.92,11.37,-1.06,0.16,9.79
-0.20,-0.28,11.35,-1.23,-0.46,9.31
0.55,-0.13,11.28,-1.22,-0.34,9.48
0.50,-0.10,11.27,-1.12,-0.03,9.77
-0.26,-0.02,11.33,-1.23,0.02,9.66
-0.13,-0.02,11.23,-1.23,-0.55,9.40
0.68,0.10,11.26,-1.26,-0.33,9.45
0.67,0.03,11.22,-1.36,0.07,9.63
-0.06,-0.19,11.15,-1.31,0.13,9.83
-0.48,-0.54,11.06,-1.23,-0.63,9.64
0.36,-0.45,11.06,-1.18,-0.55,9.57
0.91,-0.35,11.07,-1.11,-0.08,9.80
0.43,-0.33,10.95,-1.20,0.22,10.06
-0.89,-0.76,10.73,-1.50,-0.41,10.04
-0.30,-1.01,10.57,-1.38,-0.68,10.06
0.49,-1.20,10.49,-1.17,-0.45,10.04
0.54,-1.21,10.43,-1.11,-0.02,10.02
-0.46,-1.11,10.31,-1.17,-0.20,10.08
-0.29,-1.06,10.23,-1.26,-0.50,9.99
0.07,-1.00,10.10,-1.05,-0.50,9.81
0.41,-0.66,10.06,-0.88,-0.30,9.77
0.15,-0.04,9.84,-0.96,-0.16,9.71
0.13,0.15,9.77,-0.93,-0.23,9.87
0.29,0.35,9.75,-0.93,-0.22,9.85
0.09,0.42,9.63,-0.79,-0.29,9.67
0.31,0.74,9.51,-0.78,-0.27,9.68
0.50,0.92,9.37,-0.97,-0.20,9.79
0.37,0.57,9.27,-1.22,-0.12,9.99
0.22,-0.01,9.12,-1.12,-0.14,10.33
-0.06,-0.46,9.03,-0.84,-0.11,10.27
-0.39,-0.58,8.95,-0.69,-0.29,10.01
-0.29,-0.40,8.91,-0.78,-0.32,10.12
-0.24,-0.41,8.77,-0.98,-0.16,10.28
-1.00,-0.53,8.46,-0.88,-0.09,10.11
-1.26,-0.38,8.38,-0.79,-0.24,9.77
-1.05,-0.18,8.34,-0.68,-0.39,9.46
-0.63,0.08,8.31,-0.59,-0.37,9.41
-0.70,0.42,8.11,-0.97,-0.17,9.46
-0.81,0.32,7.93,-1.11,-0.25,9.47
-0.66,0.12,7.79,-0.99,-0.32,9.53
-0.53,-0.10,7.71,-0.92,-0.34,9.43
0.06,-0.41,7.48,-0.80,-0.33,9.26
0.21,-0.36,7.43,-0.76,-0.23,9.30
0.17,-0.33,7.33,-0.87,-0.21,9.44
0.15,-0.44,7.20,-1.00,-0.22,9.62
0.21,-0.91,6.96,-0.89,-0.26,9.87
0.14,-0.92,6.83,-0.85,-0.16,9.73
0.07,-0.80,6.74,-0.82,-0.15,9.59
0.02,-0.60,6.66,-0.73,-0.22,9.63
0.35,-0.04,6.46,-0.74,-0.26,9.76
0.36,0.11,6.32,-0.64,-0.20,9.85
0.36,0.47,6.19,-0.67,-0.13,9.91
0.28,0.73,6.08,-0.82,-0.12,9.90
0.05,0.67,5.94,-0.79,-0.17,10.13
-0.15,0.31,5.71,-0.66,-0.21,10.27
-0.29,0.07,5.62,-0.70,-0.13,10.12
-0.61,-0.20,5.55,-0.62,-0.17,10.15
-0.85,-0.53,5.38,-0.65,-0.39,10.16
-0.74,-0.80,5.31,-0.63,-0.38,10.08
-0.49,-0.90,5.26,-0.56,-0.20,9.93
-0.57,-0.95,5.19,-0.52,-0.05,9.69
-1.03,-0.62,5.01,-0.45,-0.22,9.75
-0.97,-0.56,4.95,-0.62,-0.45,9.66
-0.69,-0.63,4.87,-0.57,-0.55,9.66
-0.22,-0.53,4.79,-0.55,-0.37,9.57
-0.32,-0.39,4.54,-0.51,-0.19,9.60
-0.36,-0.32,4.43,-0.63,-0.38,9.57
0.07,-0.58,4.35,-0.70,-0.53,9.42
0.78,-0.89,4.24,-0.50,-0.39,9.53
0.39,-0.75,4.11,-0.43,0.09,9.62
-0.20,-0.71,4.02,-0.49,-0.13,9.73
-0.10,-0.66,3.93,-0.58,-0.47,9.86
0.35,-0.71,3.80,-0.62,-0.50,9.87
0.35,-0.83,3.64,-0.35,0.16,9.94
-0.33,-0.73,3.53,-0.40,0.07,9.84
-0.82,-0.79,3.44,-0.44,-0.39,9.74
-0.27,-0.72,3.35,-0.42,-0.67,9.81
0.67,-0.77,3.20,-0.48,-0.02,9.71
0.09,-0.75,3.07,-0.28,0.12,9.97
-0.57,-0.65,2.99,-0.39,-0.15,10.02
-0.69,-0.77,2.86,-0.59,-0.54,9.95
0.40,-1.32,2.58,-0.36,-0.52,9.87
0.56,-1.18,2.53,-0.26,-0.20,9.72
0.38,-0.95,2.45,-0.35,-0.13,9.70
0.24,-0.89,2.30,-0.37,-0.39,9.79
1.24,-0.96,2.07,-0.44,-0.42,9.69
1.38,-0.90,1.96,-0.19,-0.17,9.59
1.12,-0.62,1.86,-0.03,-0.09,9.63
1.04,-0.32,1.80,-0.12,-0.27,9.74
1.69,-0.43,1.71,-0.27,-0.26,10.05
1.48,-0.61,1.65,-0.24,-0.04,10.00
1.03,-0.66,1.55,-0.10,-0.05,9.94
0.67,-0.62,1.47,-0.23,-0.27,9.78
1.54,-1.15,1.36,-0.10,-0.51,9.69
1.80,-1.24,1.33,-0.05,-0.13,9.75
1.39,-1.23,1.31,-0.22,0.18,9.72
0.69,-1.56,1.23,-0.29,0.02,9.87
0.63,-1.75,1.13,-0.08,-0.39,9.96
0.71,-1.62,1.12,-0.06,-0.16,9.70
0.64,-1.33,1.09,0.09,0.00,9.70
0.35,-0.87,1.06,0.08,0.02,9.71
0.05,-0.38,1.00,-0.02,-0.40,9.59
0.45,-0.12,0.94,0.04,-0.42,9.64
0.60,0.18,0.89,0.05,-0.27,9.65
0.47,0.38,0.86,0.05,-0.18,10.03
-0.08,0.22,0.81,-0.23,-0.12,10.31
-0.22,-0.23,0.78,-0.23,-0.22,10.12
-0.18,-0.45,0.73,-0.05,-0.33,9.89
0.14,-0.48,0.68,-0.05,-0.27,9.60
0.37,-0.73,0.61,0.03,-0.23,9.58
0.29,-0.78,0.64,0.03,-0.29,9.63
0.34,-0.89,0.63,-0.15,-0.35,9.58
0.63,-1.03,0.62,-0.20,-0.32,9.61
0.91,-0.87,0.53,-0.13,-0.02,9.87
0.47,-0.80,0.48,-0.16,0.01,10.07
0.05,-0.93,0.47,-0.21,-0.21,10.13
0.09,-1.01,0.42,-0.22,-0.42,10.07
0.57,-0.56,0.48,-0.06,0.01,9.86
0.04,-0.40,0.44,-0.16,0.09,10.01
-0.45,-0.29,0.37,-0.13,-0.13,10.21
-0.65,-0.41,0.35,-0.15,-0.36,10.12
-0.05,-0.56,0.38,0.06,-0.28,10.05
-0.17,-0.37,0.43,0.10,0.00,10.16
-0.70,-0.28,0.51,0.10,0.11,10.42
-1.67,-0.49,0.54,-0.17,-0.42,10.25
-1.15,-0.60,0.54,-0.01,-0.50,10.04
-0.79,-0.46,0.58,0.31,-0.21,9.97
-1.02,-0.07,0.61,0.30,0.01,9.94
-1.56,0.10,0.62,0.04,-0.13,9.90
-1.11,-0.48,0.63,-0.11,-0.79,9.70
-0.24,-0.63,0.67,0.09,-0.61,9.61
0.17,-0.55,0.66,0.12,-0.21,9.50
-0.09,-0.44,0.66,0.08,0.01,9.55
-0.56,-0.45,0.55,-0.26,-0.35,9.65
-0.18,-0.74,0.48,-0.24,-0.46,9.75
0.04,-0.97,0.52,-0.05,-0.25,9.63
0.05,-0.96,0.60,0.14,-0.07,9.44
-0.37,-0.07,0.60,0.05,-0.14,9.31
-0.30,0.13,0.60,-0.03,-0.33,9.42
-0.01,0.23,0.53,-0.16,-0.30,9.70
0.02,0.13,0.49,-0.27,-0.10,9.73
-0.41,-0.20,0.49,-0.07,-0.08,9.80
-0.66,-0.10,0.66,0.24,-0.24,9.65
-0.60,0.09,0.65,0.02,-0.30,9.50
-0.48,0.19,0.57,-0.07,-0.34,9.58
-0.46,0.24,0.50,-0.16,-0.06,9.93
-0.84,0.04,0.46,-0.05,-0.10,9.95
-1.08,-0.05,0.46,0.15,-0.24,9.83
-0.86,0.08,0.50,0.07,-0.34,9.50
-0.49,0.36,0.43,-0.07,-0.33,9.77
-0.54,0.39,0.40,-0.13,-0.16,10.05
-0.76,0.21,0.37,-0.13,-0.11,10.23
-1.13,-0.08,0.31,-0.19,-0.19,9.97
-0.60,-0.01,0.33,0.13,-0.44,9.56
-0.21,0.33,0.31,-0.10,-0.36,9.55
-0.17,0.22,0.30,-0.11,-0.30,9.78
-0.20,-0.05,0.30,0.01,-0.19,9.89
-0.25,0.13,0.39,0.21,-0.25,9.43
-0.02,0.56,0.42,0.14,-0.37,9.48
0.23,0.90,0.45,0.01,-0.33,9.82
0.28,0.81,0.46,-0.19,-0.14,10.07
-0.48,0.06,0.39,0.13,-0.12,9.99
-0.52,0.09,0.47,0.22,-0.28,9.60
-0.18,0.32,0.52,0.08,-0.41,9.41
0.23,0.49,0.52,-0.03,-0.35,9.61
-0.09,0.07,0.51,-0.07,0.09,9.98
-0.65,-0.10,0.50,-0.07,0.02,9.79
-0.90,-0.12,0.49,0.03,-0.29,9.54
-0.63,0.04,0.48,0.17,-0.55,9.73
-0.12,0.21,0.53,-0.09,-0.19,10.19
-0.57,0.02,0.56,-0.03,0.02,10.43
-0.98,-0.12,0.58,-0.10,0.05,10.20
-1.09,-0.18,0.56,-0.08,-0.12,9.90
-0.59,0.27,0.50,0.02,-0.29,9.70
-0.51,0.33,0.50,-0.07,-0.24,9.80
-0.62,0.09,0.51,-0.18,-0.28,9.75
-0.35,-0.21,0.53,-0.13,-0.31,9.53
0.11,-0.27,0.54,0.01,-0.24,9.48
-0.16,0.03,0.49,-0.16,-0.15,9.67
-0.46,-0.21,0.39,-0.34,-0.45,9.92
-0.15,-0.54,0.34,-0.45,-0.59,9.78
0.90,-0.98,0.39,0.10,-0.07,9.55
0.63,-0.64,0.39,0.08,0.15,9.49
0.05,-0.32,0.34,-0.13,-0.03,9.57
-0.06,-0.22,0.27,-0.27,-0.38,9.70
1.04,-0.43,0.31,-0.09,-0.13,9.68
0.93,-0.28,0.35,0.29,0.23,9.69
0.15,0.14,0.44,0.30,0.22,9.60
-0.33,0.58,0.41,-0.09,-0.26,9.38
1.04,0.49,0.26,-0.12,-0.57,9.66
1.36,0.39,0.27,0.10,0.04,9.80
0.63,0.33,0.36,0.24,0.32,9.82
-0.34,0.30,0.41,0.22,-0.01,9.84
0.05,0.27,0.41,-0.06,-0.66,9.91
0.78,0.14,0.41,-0.07,-0.27,9.89
0.71,0.01,0.38,0.11,0.15,9.99
-0.00,0.08,0.40,0.20,0.19,10.11
-0.34,0.10,0.43,0.15,-0.46,10.01
0.19,0.06,0.47,0.10,-0.39,9.87
0.48,0.12,0.48,-0.03,-0.08,9.60
0.27,0.14,0.44,0.03,-0.01,9.61
0.06,0.31,0.42,0.04,-0.38,9.87
0.28,0.14,0.45,0.07,-0.41,9.85
0.52,0.08,0.52,0.13,-0.23,9.78
0.59,0.31,0.53,0.16,-0.08,9.69
0.27,0.71,0.48,-0.25,-0.22,9.83
0.52,0.47,0.43,-0.25,-0.26,9.96
0.65,0.13,0.42,-0.10,-0.11,9.95
0.58,-0.00,0.44,-0.00,0.06,9.78
0.13,0.17,0.48,-0.10,-0.07,9.87
0.21,0.12,0.47,-0.34,-0.09,10.12
0.17,-0.22,0.44,-0.37,0.06,10.30
-0.27,-0.68,0.39,-0.27,0.14,10.24
-0.94,-0.73,0.38,0.04,-0.31,9.70
-0.63,-0.46,0.42,-0.04,-0.54,9.65
-0.11,-0.35,0.41,-0.29,-0.42,9.75
0.14,-0.52,0.39,-0.37,-0.14,9.94
-0.76,-0.95,0.24,-0.30,-0.14,9.68
-0.64,-0.92,0.19,-0.11,-0.48,9.49
0.08,-0.80,0.19,0.01,-0.59,9.52
0.78,-0.58,0.22,-0.07,-0.26,9.57
0.45,-0.68,0.22,-0.15,0.20,9.80
0.00,-0.72,0.16,-0.05,-0.04,9.89
0.02,-0.54,0.12,-0.11,-0.33,9.72
0.56,-0.39,0.12,-0.06,-0.43,9.62
0.87,-0.15,0.21,0.19,0.10,10.02
0.30,-0.02,0.26,0.03,0.14,10.07
-0.18,-0.07,0.20,-0.00,-0.19,10.15
-0.03,-0.16,0.16,-0.04,-0.45,10.04
0.98,-0.31,0.19,0.17,-0.01,9.80
0.82,-0.27,0.23,0.21,0.32,9.87
0.07,-0.34,0.27,0.13,0.25,9.88
-0.22,-0.41,0.25,0.03,-0.09,9.94
0.49,-0.62,0.29,0.14,-0.13,9.83
0.53,-0.46,0.30,0.25,0.08,9.82
0.05,-0.10,0.32,0.28,0.11,9.84
-0.47,0.20,0.32,0.20,-0.03,9.89
-0.42,0.33,0.36,0.05,-0.33,9.71
-0.18,0.27,0.37,0.17,-0.24,9.59
-0.09,0.49,0.37,0.23,-0.03,9.57
-0.34,0.76,0.37,0.08,0.06,9.42
-0.59,0.69,0.24,-0.00,-0.22,9.58
-0.17,0.45,0.30,-0.10,-0.13,9.61
0.00,0.05,0.30,-0.06,0.06,9.66
-0.21,-0.21,0.27,0.05,0.16,9.71
-0.55,-0.39,0.28,-0.08,-0.23,9.72
-0.26,-0.46,0.27,-0.08,-0.35,9.85
0.12,-0.54,0.27,-0.11,-0.24,9.87
0.21,-0.62,0.25,-0.07,-0.02,9.87
-0.18,-0.53,0.28,-0.16,-0.13,9.63
-0.02,-0.49,0.24,-0.17,-0.41,9.55
0.57,-0.40,0.21,-0.05,-0.45,9.73
0.96,-0.32,0.21,-0.16,-0.18,9.76
0.75,-0.37,0.26,0.05,0.22,10.14
0.33,-0.07,0.30,-0.03,0.21,10.14
-0.01,0.05,0.27,-0.11,0.01,10.04
0.07,0.11,0.23,-0.07,-0.16,10.14
-0.01,0.09,0.21,-0.06,-0.07,10.27
-0.31,-0.02,0.24,0.05,-0.05,10.35
-0.54,-0.04,0.31,0.10,-0.09,10.32
-0.59,-0.29,0.28,-0.12,-0.21,9.94
-0.49,-0.39,0.28,0.02,-0.14,10.00
-0.58,-0.48,0.30,-0.07,0.00,9.78
-0.72,-0.66,0.27,0.00,-0.04,9.78
-0.89,-0.80,0.24,0.17,-0.17,9.81
-0.24,-0.85,0.31,-0.03,-0.24,9.41
0.03,-0.71,0.28,0.11,-0.01,9.62
-0.22,-0.48,0.28,-0.02,0.20,9.55
-0.82,-0.47,0.22,0.16,0.02,9.69
-0.71,0.07,0.26,0.05,-0.38,9.53
-0.30,0.17,0.25,0.05,-0.31,9.52
-0.02,0.36,0.22,0.12,-0.08,9.59
-0.19,0.55,0.20,0.15,0.08,9.61
-0.60,0.71,0.23,0.13,-0.27,9.44
-0.04,0.71,0.25,0.09,-0.33,9.42
0.29,0.70,0.21,0.05,-0.15,9.50
0.24,0.58,0.18,-0.04,0.06,9.57
-0.05,0.31,0.19,-0.00,0.06,9.71
0.02,-0.26,0.25,-0.02,-0.22,9.58
0.40,-0.37,0.24,0.08,-0.16,9.53
0.69,-0.23,0.22,0.05,-0.01,9.56
0.04,-0.25,0.20,-0.16,-0.10,9.92
0.01,-0.49,0.18,-0.13,-0.27,10.12
0.26,-0.71,0.21,-0.14,-0.25,10.10
0.39,-0.89,0.21,-0.13,-0.14,9.91
0.15,-0.42,0.15,-0.02,-0.01,10.12
0.02,-0.20,0.14,-0.11,-0.00,10.16
-0.04,-0.23,0.19,0.05,-0.03,10.40
-0.18,-0.06,0.26,0.04,-0.01,10.28
-0.32,0.22,0.25,-0.00,-0.01,9.88
-0.20,0.88,0.17,-0.05,-0.24,9.86
0.05,0.90,0.13,-0.12,-0.18,10.01
0.16,0.57,0.10,-0.03,0.02,10.23
-1.03,0.10,0.19,0.09,-0.07,9.83
-0.94,0.12,0.14,-0.02,-0.44,9.54
-0.20,0.04,0.12,-0.02,-0.58,9.50
0.61,-0.16,0.15,-0.04,-0.25,9.60
0.06,-0.80,0.15,0.08,0.25,9.72
-0.47,-0.84,0.17,0.11,0.02,9.59
-0.44,-0.80,0.18,0.03,-0.36,9.44
0.20,-0.74,0.20,-0.06,-0.46,9.49
0.91,-0.73,0.23,-0.02,-0.14,9.67
0.12,-0.76,0.18,0.02,0.29,9.71
-0.43,-0.56,0.16,0.05,0.01,9.53
-0.40,-0.30,0.21,0.14,-0.34,9.54
0.59,0.10,0.19,-0.01,-0.25,9.48
0.60,0.22,0.22,0.24,0.06,9.71
0.10,0.42,0.24,0.13,0.23,9.58
-0.29,0.47,0.21,-0.02,-0.03,9.43
0.71,0.51,0.18,0.01,-0.39,9.69
1.02,0.44,0.17,0.12,0.03,9.86
0.53,0.36,0.20,0.20,0.28,10.05
-0.08,0.32,0.28,-0.01,0.14,9.99
0.26,-0.07,0.20,0.08,-0.42,10.10
0.76,-0.04,0.19,0.01,-0.17,9.98
0.56,-0.13,0.18,-0.04,0.01,10.04
0.06,-0.17,0.16,0.05,-0.12,10.23
0.56,-0.33,0.18,-0.09,-0.35,10.07
1.06,-0.47,0.19,-0.06,-0.17,10.17
0.93,-0.43,0.17,-0.03,0.12,10.27
0.42,-0.40,0.15,-0.14,0.19,10.19
0.25,-0.26,0.19,0.14,-0.23,10.10
0.58,0.01,0.25,0.03,-0.08,9.87
0.52,0.19,0.25,0.19,0.07,9.89
0.10,0.48,0.25,0.10,0.12,10.07
-0.36,0.19,0.16,-0.31,-0.34,9.74
0.25,-0.18,0.16,0.06,-0.27,9.81
0.42,-0.25,0.18,0.14,0.01,9.63
-0.06,-0.29,0.23,0.07,0.11,9.34
-0.24,0.02,0.28,0.09,-0.36,9.22
0.40,0.09,0.27,-0.10,-0.32,9.21
0.85,-0.04,0.24,0.00,-0.08,9.48
0.55,-0.20,0.24,0.09,0.11,9.54
0.33,-0.10,0.18,0.06,-0.34,9.28
0.93,0.07,0.21,0.16,-0.39,9.49
1.43,0.24,0.27,0.19,-0.03,9.75
1.07,0.29,0.26,0.08,0.27,9.93
-0.15,0.41,0.14,-0.02,-0.13,9.78
0.23,0.51,0.12,0.05,-0.36,9.79
0.70,0.66,0.16,0.30,-0.22,9.92
0.73,0.86,0.20,0.30,0.11,10.10
-0.44,0.84,0.26,-0.04,-0.06,9.89
-0.20,0.82,0.18,-0.04,-0.29,9.91
0.24,0.79,0.18,-0.06,-0.24,9.91
0.31,0.57,0.13,-0.06,-0.04,9.98
-0.19,-0.06,0.22,0.00,-0.04,9.98
-0.06,-0.33,0.22,-0.14,-0.14,9.90
0.10,-0.58,0.22,-0.15,-0.09,10.02
-0.03,-0.72,0.22,-0.18,0.03,10.21
-0.74,-1.16,0.11,-0.21,-0.21,10.13
-0.39,-1.21,0.18,-0.10,-0.25,9.93
0.01,-1.05,0.22,0.09,-0.08,9.78
-0.13,-0.60,0.24,0.13,0.11,9.87
-0.83,0.07,0.17,-0.23,-0.33,9.98
-0.29,0.10,0.13,-0.12,-0.46,10.10
0.20,0.30,0.09,-0.02,-0.12,9.99
0.02,0.54,0.08,0.13,0.27,9.94
-1.10,0.89,0.10,-0.18,-0.17,9.96
-0.71,0.61,0.07,-0.30,-0.50,9.84
-0.03,0.23,0.04,-0.06,-0.42,9.89
0.19,-0.06,0.03,0.10,0.00,9.66
-0.61,-0.02,0.10,0.22,0.06,9.45
-0.77,0.08,0.11,0.15,-0.24,9.21
-0.28,0.13,0.18,0.13,-0.49,9.34
0.41,0.16,0.19,0.04,-0.33,9.45
0.10,-0.25,0.14,-0.06,0.30,9.60
-0.45,-0.46,0.09,-0.07,0.12,9.57
-0.57,-0.57,0.06,0.07,-0.24,9.72
-0.26,-0.63,0.14,0.08,-0.34,9.80
0.02,-0.83,0.16,0.08,0.01,10.02
-0.40,-0.74,0.18,0.02,0.13,9.98
-0.79,-0.47,0.13,-0.07,0.05,9.97
-0.95,-0.28,0.09,0.04,-0.17,10.13
-0.45,-0.07,0.14,0.15,-0.28,9.97
-0.22,-0.01,0.24,0.22,-0.06,9.66
-0.25,0.36,0.31,0.31,0.06,9.65
-0.50,0.94,0.30,0.22,-0.01,9.69
-0.13,1.15,0.23,-0.11,-0.29,9.73
0.18,0.90,0.19,0.02,-0.14,9.66
0.22,0.73,0.18,0.18,0.09,9.70
-0.19,0.76,0.21,0.27,0.06,9.87
-0.44,0.57,0.23,-0.07,-0.40,9.93
-0.02,0.31,0.26,-0.10,-0.32,9.97
0.21,0.11,0.26,-0.07,0.08,9.90
-0.21,-0.01,0.23,0.10,0.30,9.90
-1.03,0.01,0.12,-0.15,-0.31,9.59
-0.46,-0.28,0.11,-0.18,-0.55,9.57
0.25,-0.47,0.10,-0.09,-0.32,9.55
0.57,-0.51,0.18,0.09,0.04,9.60
0.27,-0.32,0.22,0.15,0.26,9.57
-0.36,0.22,0.18,-0.11,-0.24,9.53
-0.01,0.43,0.12,-0.12,-0.44,9.66
0.43,0.53,0.11,-0.07,-0.30,9.89
0.15,0.14,0.19,0.07,-0.02,9.88
0.13,0.23,0.25,0.33,-0.08,9.91
0.12,0.59,0.31,0.15,-0.08,9.71
0.16,0.79,0.32,-0.09,-0.16,9.76
0.39,0.21,0.12,-0.28,-0.10,10.10
0.40,-0.23,0.11,-0.06,0.04,10.21
-0.02,-0.51,0.19,0.14,0.10,10.04
-0.24,-0.47,0.26,0.24,-0.07,9.82
-0.12,-0.18,0.27,0.17,-0.26,9.74
0.47,0.04,0.25,-0.12,-0.22,9.97
0.44,-0.01,0.14,-0.13,-0.02,10.00
0.16,-0.00,0.06,0.00,0.10,9.79
0.03,0.13,0.17,0.12,-0.32,9.47
0.37,0.25,0.23,0.21,-0.45,9.43
0.82,0.38,0.28,0.25,-0.31,9.53
1.06,0.57,0.27,0.04,-0.01,9.52
0.61,0.48,0.14,-0.16,0.11,9.73
0.34,0.27,0.11,0.03,-0.10,9.89
0.40,0.15,0.12,0.15,-0.23,9.92
0.63,0.04,0.21,0.12,-0.20,9.73
0.68,0.22,0.25,0.05,0.15,9.99
0.19,0.32,0.19,-0.18,0.25,10.16
-0.55,0.09,0.12,-0.23,0.14,10.37
-1.04,-0.26,0.08,-0.25,-0.18,10.27
-0.21,-0.69,0.03,-0.00,-0.27,9.66
0.06,-0.55,0.04,0.07,0.02,9.50
-0.32,-0.41,0.06,0.05,0.16,9.62
-0.89,-0.34,-0.02,-0.06,-0.03,9.76
-0.18,-0.44,-0.14,-0.13,-0.51,9.37
0.68,-0.21,-0.21,0.06,-0.18,9.32
0.77,0.26,-0.22,0.15,0.20,9.41
0.03,0.61,-0.25,0.17,0.17,9.59
0.10,0.80,-0.28,-0.03,-0.62,9.63
1.16,0.73,-0.35,0.07,-0.48,9.74
1.59,0.75,-0.38,0.18,0.06,9.92
1.01,0.91,-0.40,0.14,0.45,10.17
-0.41,0.64,-0.41,-0.04,-0.39,10.21
0.40,0.34,-0.40,0.02,-0.64,10.09
1.40,0.13,-0.38,0.09,-0.23,10.04
1.40,-0.02,-0.45,0.21,0.37,10.28
-0.68,-0.23,-0.55,-0.11,-0.00,10.49
-0.66,-0.74,-0.51,-0.14,-0.42,10.44
0.03,-1.15,-0.49,-0.08,-0.36,10.22
0.43,-1.29,-0.49,0.05,0.05,10.10
-0.94,-1.02,-0.52,0.03,0.11,9.78
-1.31,-0.89,-0.55,0.04,-0.43,9.74
-0.69,-0.66,-0.57,0.12,-0.65,9.62
0.26,-0.49,-0.49,0.19,-0.29,9.54
-0.43,0.10,-0.39,0.13,0.41,9.48
-1.23,0.44,-0.41,0.17,0.03,9.47
-1.15,0.75,-0.38,0.08,-0.44,9.43
-0.42,0.80,-0.40,0.03,-0.54,9.38
0.46,0.67,-0.44,0.13,0.25,9.67
-0.37,0.53,-0.42,0.05,0.35,9.78
-1.04,0.35,-0.41,-0.11,0.01,9.93
-0.98,-0.01,-0.46,-0.25,-0.35,9.97
-0.06,-0.99,-0.51,-0.01,-0.12,9.87
-0.29,-1.21,-0.48,0.08,0.14,9.64
-0.64,-1.21,-0.48,0.15,0.11,9.55
-0.82,-1.10,-0.51,0.03,-0.06,9.46
-0.31,-1.08,-0.55,-0.15,-0.37,9.37
0.09,-1.17,-0.57,-0.01,-0.36,9.35
0.53,-0.97,-0.55,0.16,-0.25,9.37
0.76,-0.59,-0.51,0.19,-0.06,9.37
0.68,0.04,-0.57,0.06,-0.10,9.72
0.77,0.31,-0.60,0.05,-0.17,9.85
0.78,0.45,-0.62,0.13,-0.16,9.97
0.78,0.63,-0.61,0.20,-0.07,10.11
0.32,0.85,-0.54,0.33,0.10,10.39
-0.05,0.87,-0.54,0.05,0.11,10.26
-0.27,0.66,-0.54,0.11,-0.07,10.29
-0.28,0.55,-0.61,0.31,-0.14,10.45
-0.54,0.24,-0.60,0.18,-0.02,10.16
-0.62,0.07,-0.61,0.28,-0.06,10.20
-0.70,0.11,-0.58,0.21,-0.05,10.03
-0.89,0.10,-0.60,0.20,-0.16,9.92
-0.50,0.02,-0.66,0.10,-0.31,9.81
-0.18,-0.05,-0.75,0.08,-0.21,9.70
-0.05,-0.11,-0.80,0.08,-0.08,9.60
-0.20,-0.06,-0.83,0.22,-0.07,9.57
-0.21,0.08,-0.78,0.23,-0.30,9.32
0.17,0.35,-0.79,0.28,-0.19,9.48
0.23,0.56,-0.82,0.09,0.06,9.49
-0.08,0.48,-0.85,-0.05,0.15,9.61
-0.52,0.16,-0.88,0.05,-0.17,9.78
-0.31,0.07,-0.84,0.13,-0.21,9.54
0.09,0.06,-0.78,0.13,-0.07,9.45
0.09,0.16,-0.77,0.03,0.12,9.54
-0.64,0.11,-0.84,-0.01,-0.14,9.81
-0.63,0.02,-0.84,-0.03,-0.33,9.89
-0.31,-0.15,-0.83,-0.07,-0.34,9.72
0.33,-0.29,-0.84,0.07,0.09,9.64
-0.11,-0.24,-0.84,-0.02,0.14,9.50
-0.39,-0.32,-0.89,-0.08,-0.22,9.60
-0.09,-0.38,-0.96,-0.06,-0.52,9.66
0.63,-0.46,-0.94,0.03,-0.43,9.59
0.94,-0.22,-0.93,0.20,0.27,9.74
0.45,0.11,-0.92,0.11,0.30,9.81
0.07,0.31,-0.95,-0.10,-0.05,9.89
0.05,0.22,-0.99,-0.06,-0.41,10.10
0.77,-0.11,-1.02,0.16,-0.13,10.55
0.52,-0.24,-0.98,0.23,0.24,10.65
-0.31,-0.35,-0.90,0.04,0.28,10.53
-0.94,-0.45,-0.88,0.05,-0.00,10.59
-0.84,-0.63,-0.85,0.04,-0.32,10.01
-0.45,-0.75,-0.84,0.36,-0.29,9.80
-0.02,-0.52,-0.82,0.40,-0.11,9.69
-0.07,-0.28,-0.81,0.19,0.03,9.35
-0.10,0.12,-0.75,0.31,-0.23,9.41
0.17,0.27,-0.74,0.14,-0.27,9.30
0.64,0.27,-0.80,0.23,-0.17,9.44
0.49,0.33,-0.80,0.39,-0.07,9.61
0.24,0.67,-0.82,0.15,-0.27,9.39
0.57,0.68,-0.82,0.29,-0.38,9.56
1.12,0.84,-0.80,0.36,-0.18,9.67
0.99,0.94,-0.75,0.34,0.15,9.69
0.02,1.15,-0.72,0.20,0.07,9.88
-0.06,1.14,-0.77,-0.06,-0.17,9.71
0.34,0.85,-0.81,0.06,-0.28,9.81
0.63,0.62,-0.83,0.12,-0.04,9.88
0.00,0.15,-0.80,0.17,0.17,9.64
-0.22,0.09,-0.78,0.17,0.02,9.71
-0.37,0.19,-0.77,0.00,-0.15,9.71
-0.47,0.08,-0.82,-0.08,-0.29,9.80
-0.07,-0.41,-0.84,-0.05,-0.22,9.67
0.20,-0.36,-0.82,0.18,0.03,9.72
-0.05,-0.06,-0.78,0.21,0.16,9.84
-0.63,0.18,-0.82,-0.07,-0.03,9.86
-0.38,0.08,-0.92,-0.13,-0.65,10.12
0.44,0.05,-0.97,-0.11,-0.44,10.08
0.64,-0.05,-0.95,0.03,0.04,10.11
0.06,-0.05,-0.95,0.18,0.27,10.08
-0.48,0.15,-0.97,0.08,-0.03,9.98
0.37,0.12,-1.02,-0.10,-0.63,9.87
1.05,0.06,-1.01,0.20,-0.25,10.18
0.74,0.21,-0.97,0.34,0.20,10.25
-0.57,0.39,-0.99,0.12,-0.30,9.98
-0.10,0.47,-0.98,0.11,-0.68,9.83
0.79,0.49,-0.96,0.09,-0.47,9.76
1.03,0.53,-1.03,0.14,0.00,9.84
-0.40,0.28,-1.06,0.13,-0.11,9.75
-0.37,0.13,-1.14,0.06,-0.54,9.60
0.39,-0.00,-1.15,0.05,-0.64,9.53
0.89,-0.21,-1.18,0.13,-0.32,9.67
0.72,-0.33,-1.15,0.11,0.08,9.76
-0.50,-0.62,-1.12,0.18,-0.24,9.83
-0.28,-0.62,-1.14,0.08,-0.58,9.66
0.40,-0.61,-1.15,0.06,-0.63,9.60
0.78,-0.32,-1.10,0.31,-0.02,9.61
0.27,-0.01,-1.00,0.41,0.04,9.68
-0.09,0.43,-0.90,0.43,-0.12,9.67
-0.21,0.93,-0.90,0.43,-0.40,9.80
0.09,1.92,-0.90,0.13,-0.32,9.77
0.04,1.90,-0.93,-0.02,-0.20,9.85
-0.16,1.65,-0.97,0.15,-0.15,10.03
-0.35,1.36,-0.94,0.21,-0.16,9.92
-0.72,0.91,-0.95,0.13,-0.56,9.82
-0.62,0.64,-0.94,-0.09,-0.66,9.78
-0.35,0.15,-1.02,-0.17,-0.75,9.91
-0.09,-0.36,-1.08,-0.08,-0.71,9.95
0.31,-0.99,-1.02,0.11,-0.36,9.50
0.38,-0.93,-1.02,0.18,-0.33,9.41
0.47,-0.58,-1.02,0.09,-0.32,9.51
0.50,-0.29,-1.07,-0.05,-0.30,9.65
0.45,-0.06,-1.14,0.02,-0.24,9.99
0.42,0.03,-1.07,0.12,-0.15,9.82
0.47,0.28,-1.03,0.14,-0.09,9.71
0.23,0.62,-1.06,0.23,-0.19,9.64
0.41,1.12,-1.06,-0.04,-0.40,10.01
0.29,0.92,-1.08,-0.05,-0.39,10.30
-0.01,0.57,-1.07,0.11,-0.32,10.39
-0.22,0.31,-1.00,0.17,-0.29,10.29
-0.51,0.10,-1.00,0.09,-0.59,10.06
-0.45,-0.06,-1.06,0.05,-0.77,10.01
-0.12,-0.24,-1.06,-0.01,-0.70,9.92
0.08,-0.37,-1.05,0.14,-0.53,9.90
-0.10,-0.29,-0.93,0.32,-0.29,9.70
-0.15,-0.10,-0.98,0.22,-0.41,9.54
0.26,0.20,-1.04,0.04,-0.48,9.36
0.75,0.39,-1.08,0.04,-0.47,9.27
1.11,0.61,-1.15,0.42,-0.20,9.66
0.87,0.79,-1.05,0.32,-0.22,9.69
0.55,0.73,-0.97,0.11,-0.51,9.63
0.72,0.72,-0.99,0.15,-0.82,9.85
1.40,0.78,-1.09,0.05,-0.79,10.20
1.46,0.69,-1.08,0.16,-0.61,10.45
1.30,0.65,-1.02,0.17,-0.42,10.45
1.11,0.56,-1.01,0.12,-0.35,10.21
1.03,0.75,-1.04,0.23,-0.35,9.87
0.96,0.93,-1.03,0.28,-0.25,9.86
0.69,1.20,-0.96,0.32,-0.23,9.88
0.41,1.35,-0.93,0.17,-0.30,9.57
0.71,1.59,-0.88,0.07,-0.42,9.32
0.75,1.86,-0.94,0.20,-0.38,9.52
0.39,2.06,-1.03,0.18,-0.37,9.81
-0.14,1.99,-1.08,-0.12,-0.45,9.95
-0.46,0.65,-1.18,-0.21,-0.95,10.20
-0.07,0.19,-1.20,-0.25,-0.79,10.15
-0.21,-0.32,-1.19,-0.17,-0.44,9.99
-0.70,-0.74,-1.21,-0.11,-0.31,9.88
-0.86,-1.18,-1.23,-0.18,-0.60,9.54
-0.50,-1.44,-1.23,-0.19,-0.51,9.55
-0.43,-1.62,-1.22,-0.11,-0.24,9.56
-1.33,-1.73,-1.10,-0.19,-0.15,9.37
-1.56,-1.76,-1.09,-0.10,-0.50,9.33
-1.22,-1.60,-1.03,-0.03,-0.64,9.34
-0.89,-1.32,-1.02,-0.07,-0.50,9.32
-1.15,-1.03,-1.06,0.04,-0.31,9.47
-2.09,-0.66,-1.04,-0.14,-0.67,9.76
-2.08,-0.80,-1.07,0.05,-0.90,9.95
-1.61,-0.85,-1.01,-0.01,-0.77,9.82
-1.42,-0.87,-1.04,0.06,-0.45,9.70
-2.14,-0.74,-1.06,0.04,-0.16,9.70
-2.44,-0.85,-1.10,0.10,-0.48,9.83
-2.05,-0.91,-1.11,0.11,-0.68,9.78
-1.57,-1.00,-1.11,0.31,-0.56,9.68
-1.87,-0.49,-0.99,0.43,-0.24,9.98
-2.44,-0.29,-1.05,0.17,-0.51,10.08
-2.52,-0.40,-1.14,-0.06,-0.85,10.27
-2.19,-0.62,-1.25,0.03,-1.00,10.36
-1.85,-0.78,-1.18,0.38,-0.57,10.22
-2.23,-0.59,-1.11,0.44,-0.56,10.23
-2.66,-0.34,-1.13,0.24,-0.84,10.37
-2.65,-0.29,-1.19,-0.02,-1.14,10.45
-1.77,-0.68,-1.30,0.20,-0.75,10.51
-1.90,-0.60,-1.26,0.47,-0.34,10.41
-2.40,-0.23,-1.18,0.62,-0.30,10.29
-2.89,0.27,-1.11,0.43,-0.59,10.08
-2.91,0.52,-1.19,-0.18,-1.07,9.61
-2.28,0.19,-1.33,0.21,-1.25,9.58
-1.39,0.42,-1.35,0.53,-1.25,9.63
-0.92,0.87,-1.27,0.32,-0.94,9.28
-0.95,1.07,-1.28,0.37,-0.79,9.38
-1.71,1.65,-1.23,0.07,-0.98,9.80
-1.68,1.23,-1.28,-0.22,-0.98,9.69
-1.32,0.51,-1.34,0.01,-1.08,9.88
-0.83,0.15,-1.23,0.35,-0.76,9.59
-1.29,0.12,-1.18,0.32,-0.72,9.63
-1.69,0.16,-1.10,0.01,-0.77,9.55
-1.69,-0.13,-1.07,-0.16,-0.86,9.42
-1.14,-0.74,-1.14,0.05,-1.05,9.42
-1.19,-0.67,-1.12,0.17,-1.03,9.25
-1.31,-0.58,-1.08,0.15,-1.07,9.22
-1.26,-0.55,-1.03,-0.03,-1.16,9.15
-0.92,-0.65,-0.99,-0.19,-1.23,9.02
-0.05,-0.69,-1.04,0.05,-1.20,9.20
0.09,-0.50,-1.02,0.06,-1.12,9.23
0.04,-0.43,-1.01,-0.12,-0.98,9.03
0.48,-0.51,-1.03,0.10,-0.94,8.90
0.84,-0.11,-1.06,0.15,-0.96,8.96
0.92,0.22,-1.07,0.08,-0.92,8.97
0.97,0.29,-1.05,0.03,-0.96,9.09
1.71,0.28,-1.08,0.03,-1.07,9.32
1.96,0.24,-1.13,-0.06,-0.90,9.40
1.68,0.14,-1.20,-0.01,-0.82,9.80
1.04,-0.05,-1.27,-0.08,-0.90,10.06
0.70,-0.57,-1.27,-0.24,-1.18,10.00
1.66,-1.92,-1.20,-0.02,-1.12,9.80
1.69,-2.00,-1.13,0.16,-0.67,9.69
0.92,-1.84,-1.15,0.18,-0.58,9.80
0.32,-1.85,-1.21,-0.19,-1.30,9.97
0.98,-2.05,-1.18,-0.04,-1.25,9.98
1.28,-2.03,-1.10,0.23,-0.84,9.80
0.99,-1.53,-1.08,0.43,-0.64,9.87
-0.12,-0.30,-1.11,-0.04,-1.36,10.43
-0.06,-0.33,-1.15,-0.10,-1.61,10.66
0.44,-0.53,-1.11,0.03,-1.54,10.82
0.77,-0.60,-1.08,0.15,-1.24,10.65
0.06,0.07,-1.10,0.48,-1.05,10.32
-0.11,0.46,-1.06,0.22,-1.22,10.16
0.17,0.39,-1.06,0.16,-1.41,10.25
0.58,0.20,-1.04,0.22,-1.25,10.18
0.44,0.16,-0.93,0.57,-0.94,9.79
0.08,0.54,-0.93,0.58,-1.12,9.81
0.13,0.76,-0.96,0.29,-1.27,9.76
0.55,0.54,-0.98,-0.02,-1.29,9.73
0.44,-0.15,-1.03,0.35,-1.09,9.98
-0.03,-0.20,-1.01,0.23,-1.24,9.71
0.02,-0.38,-1.01,0.15,-1.54,9.58
0.55,-0.57,-1.04,0.14,-1.61,9.59
1.06,-0.86,-1.04,0.10,-1.06,9.67
0.67,-0.85,-1.04,0.24,-0.89,9.79
0.26,-0.67,-0.98,0.28,-0.90,9.80
-0.00,-0.49,-0.96,0.18,-1.03,9.75
0.14,-0.14,-0.96,0.12,-1.13,9.63
0.27,0.11,-0.93,0.28,-0.98,9.68
0.03,0.44,-0.90,0.32,-0.78,9.68
-0.56,0.71,-0.86,0.21,-0.81,9.69
-1.30,0.84,-0.84,-0.01,-1.45,9.81
-1.09,0.67,-0.85,-0.01,-1.49,9.72
-0.93,0.41,-0.84,0.16,-1.38,9.62
-0.81,0.44,-0.82,0.30,-1.27,9.60
-1.15,0.54,-0.85,-0.06,-1.27,9.93
-1.10,0.11,-0.84,-0.19,-1.39,10.04
-0.81,-0.41,-0.83,-0.04,-1.36,10.03
-0.50,-0.59,-0.84,0.19,-1.12,9.75
-0.65,-0.14,-0.81,0.24,-1.03,9.68
-0.72,-0.01,-0.79,-0.12,-1.29,9.79
-0.53,-0.30,-0.83,-0.25,-1.55,9.87
-0.17,-0.59,-0.88,-0.03,-1.57,9.82
0.34,-0.17,-0.93,0.16,-1.25,9.38
0.23,0.12,-0.97,0.12,-1.36,9.58
0.25,0.24,-1.02,-0.16,-1.51,9.82
0.43,-0.11,-1.08,-0.32,-1.60,9.78
1.03,-0.47,-1.09,0.22,-1.13,9.62
0.74,-0.06,-1.09,0.37,-1.00,9.59
0.38,0.32,-1.10,0.20,-1.13,9.76
0.39,0.47,-1.10,-0.11,-1.34,10.00
0.50,-0.08,-1.14,0.08,-1.13,10.27
0.18,-0.07,-1.10,0.32,-0.93,10.25
-0.56,0.11,-1.05,0.48,-1.02,10.22
-1.06,0.37,-0.98,0.33,-1.37,10.32
-0.98,0.27,-1.02,-0.11,-1.58,10.44
-0.84,-0.16,-1.02,-0.13,-1.31,10.31
-1.09,-0.56,-0.97,0.16,-1.10,10.13
-1.70,-0.64,-0.89,0.52,-1.15,9.91
-1.52,-0.39,-0.81,0.14,-1.71,9.22
-0.80,-0.40,-0.80,-0.07,-1.71,9.16
-0.18,-0.45,-0.84,-0.05,-1.50,9.26
-0.17,-0.57,-0.85,0.07,-1.18,9.37
-0.81,-0.59,-0.76,0.34,-1.40,9.26
-0.57,-0.25,-0.74,0.30,-1.65,9.17
-0.14,0.16,-0.78,0.16,-1.69,9.14
0.14,0.34,-0.86,-0.00,-1.61,9.46
0.12,0.24,-0.88,0.07,-1.27,10.07
-0.36,-0.03,-0.88,0.22,-1.24,10.04
-0.78,0.03,-0.80,0.40,-1.37,9.90
-0.96,0.31,-0.74,0.31,-1.45,9.73
-0.48,0.57,-0.86,-0.00,-1.55,9.85
-0.07,0.43,-0.84,0.02,-1.38,9.96
-0.19,0.23,-0.78,0.24,-1.21,10.09
-0.82,0.21,-0.78,0.37,-1.25,9.96
-1.22,0.38,-0.72,0.21,-1.42,9.67
-0.77,0.43,-0.77,-0.17,-1.75,9.64
-0.18,0.12,-0.83,-0.23,-1.61,9.69
-0.11,-0.24,-0.90,-0.07,-1.33,9.80
-1.32,-0.55,-0.97,0.02,-1.52,9.55
-1.27,-0.68,-0.98,-0.02,-1.87,9.50
-0.53,-0.71,-0.92,0.00,-1.87,9.54
0.11,-0.70,-0.85,0.09,-1.51,9.66
-0.75,-0.40,-0.87,0.03,-1.17,9.72
-1.17,-0.25,-0.90,0.00,-1.61,9.80
-0.81,-0.05,-0.95,-0.04,-1.96,9.90
-0.18,-0.03,-0.99,-0.06,-1.92,9.85
0.16,-0.10,-0.95,0.10,-1.63,10.03
-0.59,-0.05,-0.90,-0.01,-1.50,9.97
-0.68,-0.18,-0.92,-0.04,-1.85,9.95
-0.32,-0.23,-0.94,0.02,-1.97,9.83
0.48,-0.09,-0.95,0.22,-1.55,9.58
0.41,0.15,-0.90,0.31,-1.45,9.60
0.21,0.29,-0.87,0.21,-1.53,9.66
0.18,0.26,-0.84,0.23,-1.67,9.76
0.41,0.35,-0.80,0.29,-1.50,9.62
0.18,0.59,-0.80,0.33,-1.48,9.63
-0.16,0.77,-0.76,0.24,-1.64,9.80
-0.32,0.77,-0.76,0.18,-1.81,9.99
-0.32,0.56,-0.75,0.05,-1.88,9.93
-0.27,0.19,-0.69,0.44,-1.77,9.76
-0.33,0.36,-0.63,0.32,-1.74,9.63
-0.35,0.27,-0.65,0.08,-1.76,9.48
0.04,-0.05,-0.62,0.13,-1.65,9.65
-0.06,-0.20,-0.56,0.16,-1.56,9.48
-0.23,-0.22,-0.54,0.28,-1.64,9.50
-0.32,0.07,-0.54,0.31,-1.78,9.66
-0.25,0.18,-0.52,-0.23,-1.72,9.62
-0.25,0.01,-0.61,0.05,-1.82,9.89
-0.34,0.18,-0.63,0.20,-1.81,9.86
-0.43,0.35,-0.59,0.03,-1.70,9.58
-0.72,0.33,-0.62,0.01,-1.87,9.66
-0.23,0.39,-0.73,-0.20,-2.01,9.77
-0.04,0.03,-0.81,-0.16,-1.95,9.79
0.20,-0.06,-0.84,0.05,-1.85,9.66
0.49,0.08,-0.77,0.16,-1.64,9.44
0.61,0.22,-0.72,0.09,-1.66,9.52
0.67,0.26,-0.69,0.02,-1.65,9.70
0.62,0.21,-0.72,-0.11,-1.62,9.80
0.34,0.04,-0.73,0.16,-1.67,9.84
0.18,0.18,-0.72,0.25,-1.68,9.81
0.18,0.45,-0.68,0.13,-1.71,9.79
-0.02,0.49,-0.68,-0.02,-1.80,10.01
-0.31,0.23,-0.70,-0.02,-1.75,10.19
-0.64,0.04,-0.71,0.03,-1.76,10.07
-0.76,-0.04,-0.69,0.07,-1.81,9.90
-0.70,-0.06,-0.65,0.16,-1.80,9.74
-0.37,0.11,-0.58,0.15,-1.49,9.69
-0.67,0.09,-0.55,0.08,-1.49,9.76
-0.80,-0.04,-0.53,-0.02,-1.64,9.74
-0.61,-0.12,-0.52,-0.03,-1.76,9.66
-0.35,-0.09,-0.58,0.12,-1.67,9.49
-0.32,-0.04,-0.55,0.04,-1.75,9.44
-0.22,-0.01,-0.60,0.01,-1.91,9.51
0.01,-0.02,-0.62,-0.06,-1.99,9.57
0.43,-0.43,-0.71,-0.14,-1.91,9.54
0.46,-0.52,-0.75,0.10,-1.90,9.68
0.46,-0.43,-0.76,0.19,-1.85,9.77
0.55,-0.26,-0.76,0.03,-1.76,9.88
0.71,-0.40,-0.74,-0.02,-1.52,9.97
0.58,-0.23,-0.74,0.24,-1.43,10.13
0.19,0.17,-0.67,0.29,-1.43,10.08
-0.08,0.45,-0.60,0.15,-1.67,10.05
0.20,0.83,-0.63,0.20,-1.85,10.23
0.17,0.92,-0.59,0.15,-1.67,10.25
-0.30,0.93,-0.58,0.13,-1.58,10.30
-0.67,0.90,-0.56,0.21,-1.68,10.18
-0.59,0.78,-0.48,0.21,-1.81,9.80
-0.46,0.69,-0.45,0.16,-1.75,9.67
-0.41,0.62,-0.50,0.16,-1.65,9.74
-0.54,0.52,-0.52,0.07,-1.53,9.71
-0.78,-0.27,-0.55,0.00,-1.72,9.44
-0.60,-0.50,-0.51,0.25,-1.85,9.43
-0.29,-0.44,-0.46,0.30,-1.84,9.34
-0.24,-0.35,-0.42,0.10,-1.79,9.21
0.06,-0.34,-0.52,-0.02,-1.85,9.43
0.21,-0.30,-0.53,0.04,-1.78,9.50
0.21,-0.30,-0.50,0.08,-1.70,9.44
0.20,-0.20,-0.47,0.19,-1.75,9.45
0.64,0.37,-0.40,0.02,-1.86,9.56
0.96,0.54,-0.40,-0.06,-1.72,9.87
0.88,0.54,-0.43,-0.17,-1.51,10.14
0.45,0.39,-0.50,-0.18,-1.45,10.24
