angleSpeedx_y_z;lineAccx_y_z
-0.01,-0.01,0.03,0.05,-0.15,9.80
-0.00,-0.02,0.03,0.04,-0.16,9.81
-0.01,-0.01,0.03,0.05,-0.16,9.80
0.00,0.01,0.04,0.05,-0.16,9.80
-0.00,0.01,0.04,0.04,-0.16,9.81
-0.01,-0.00,0.03,0.04,-0.16,9.82
0.02,-0.00,0.04,0.05,-0.16,9.81
0.02,0.01,0.02,0.05,-0.16,9.80
0.01,0.02,0.03,0.05,-0.15,9.80
0.01,0.02,0.03,0.04,-0.16,9.79
0.02,-0.01,0.03,0.05,-0.16,9.80
0.01,-0.02,0.04,0.06,-0.17,9.79
-0.00,0.00,0.06,0.06,-0.17,9.79
0.04,0.00,0.05,0.05,-0.17,9.79
0.02,-0.03,0.05,0.04,-0.17,9.79
0.04,-0.03,0.05,0.05,-0.16,9.80
0.00,0.00,0.06,0.05,-0.16,9.80
-0.00,0.01,0.05,0.05,-0.17,9.80
-0.02,0.02,0.04,0.05,-0.17,9.80
-0.02,0.03,0.03,0.04,-0.17,9.81
-0.01,0.00,0.03,0.04,-0.17,9.81
-0.03,0.01,0.05,0.05,-0.18,9.81
0.02,0.01,0.03,0.04,-0.18,9.80
0.02,0.01,0.04,0.04,-0.17,9.80
0.02,-0.01,0.03,0.04,-0.16,9.81
0.03,0.00,0.03,0.03,-0.17,9.80
0.03,0.01,0.04,0.03,-0.17,9.80
0.02,-0.00,0.04,0.03,-0.17,9.81
0.00,-0.02,0.02,0.03,-0.16,9.81
0.01,0.01,0.04,0.03,-0.16,9.81
0.01,-0.01,0.04,0.04,-0.16,9.81
0.01,-0.02,0.04,0.03,-0.16,9.80
0.00,-0.01,0.04,0.04,-0.16,9.80
0.01,-0.00,0.05,0.04,-0.16,9.80
-0.00,-0.02,0.04,0.05,-0.16,9.80
-0.00,-0.01,0.05,0.04,-0.16,9.80
0.01,-0.00,0.04,0.04,-0.17,9.80
-0.00,-0.01,0.06,0.05,-0.17,9.80
0.03,-0.01,0.05,0.04,-0.17,9.80
0.04,-0.04,0.05,0.04,-0.17,9.80
0.01,-0.04,0.05,0.04,-0.16,9.80
0.02,-0.03,0.07,0.04,-0.18,9.80
0.02,-0.02,0.05,0.04,-0.18,9.80
-0.02,-0.02,0.04,0.05,-0.17,9.80
-0.03,-0.02,0.05,0.05,-0.17,9.81
-0.02,-0.03,0.04,0.05,-0.16,9.81
-0.01,0.01,0.05,0.05,-0.17,9.80
-0.02,0.00,0.05,0.05,-0.17,9.80
-0.02,-0.02,0.04,0.05,-0.17,9.80
0.02,0.02,0.03,0.05,-0.17,9.81
0.01,0.02,0.07,0.04,-0.17,9.81
0.01,0.01,0.05,0.05,-0.17,9.81
0.00,0.01,0.03,0.06,-0.17,9.81
-0.01,0.01,0.04,0.05,-0.17,9.80
0.00,-0.01,0.07,0.04,-0.17,9.80
0.01,-0.00,0.06,0.04,-0.17,9.80
-0.01,-0.02,0.05,0.05,-0.18,9.80
-0.02,-0.02,0.03,0.05,-0.16,9.79
-0.00,-0.03,0.03,0.04,-0.16,9.80
-0.01,-0.02,0.03,0.04,-0.17,9.80
-0.03,-0.00,0.05,0.04,-0.16,9.79
-0.00,-0.00,0.04,0.05,-0.16,9.80
0.01,0.00,0.04,0.05,-0.15,9.80
-0.01,0.01,0.06,0.04,-0.15,9.80
-0.00,0.02,0.07,0.03,-0.16,9.81
0.03,0.03,0.06,0.03,-0.14,9.82
0.00,0.03,0.05,0.04,-0.14,9.82
-0.01,-0.01,0.03,0.04,-0.15,9.82
0.01,-0.02,0.04,0.04,-0.16,9.82
-0.02,-0.03,0.06,0.04,-0.16,9.83
-0.04,-0.03,0.05,0.05,-0.17,9.82
-0.06,-0.03,0.04,0.04,-0.18,9.82
-0.06,-0.02,0.05,0.04,-0.19,9.80
-0.02,0.00,0.03,0.06,-0.15,9.81
-0.09,0.02,0.04,0.04,-0.16,9.81
-0.13,-0.01,0.04,0.04,-0.21,9.80
-0.04,-0.03,0.03,0.06,-0.23,9.79
0.02,0.04,0.04,0.06,-0.17,9.76
-0.06,0.05,0.06,0.07,-0.19,9.78
-0.07,0.03,0.05,0.04,-0.25,9.79
0.06,-0.00,0.06,0.02,-0.25,9.76
0.10,-0.01,0.04,0.09,-0.12,9.79
-0.02,0.03,0.06,0.06,-0.15,9.79
-0.07,0.01,0.04,0.03,-0.20,9.79
0.04,-0.01,0.07,0.01,-0.23,9.79
0.22,-0.04,0.06,0.06,-0.13,9.77
0.38,-0.00,0.08,0.05,-0.05,9.74
0.64,-0.02,0.05,0.01,0.10,9.58
0.93,-0.07,0.06,0.02,0.33,9.47
1.01,0.06,0.06,0.11,0.68,9.51
0.80,0.16,0.05,0.10,0.58,9.70
0.59,0.16,0.07,0.01,0.33,9.86
0.66,0.06,0.09,-0.05,0.13,9.95
1.26,-0.13,0.06,0.05,0.17,9.95
1.39,-0.01,0.07,0.10,0.29,10.06
1.08,0.08,0.08,0.10,0.38,10.23
0.47,0.07,0.08,0.02,0.33,10.42
-0.56,-0.22,0.04,-0.04,0.05,10.24
-0.48,-0.24,0.03,0.05,-0.03,9.96
-0.34,-0.13,0.02,0.15,0.04,9.80
-0.34,0.07,0.03,0.14,0.15,9.83
-0.82,0.03,0.02,-0.03,0.00,9.93
-0.75,-0.12,0.05,-0.01,-0.11,9.76
-0.52,-0.13,0.06,0.09,-0.11,9.52
-0.32,0.04,0.06,0.16,-0.05,9.42
-0.35,0.24,0.06,-0.00,-0.09,9.66
-0.27,0.09,0.05,-0.09,-0.17,9.72
-0.13,-0.08,0.05,-0.03,-0.15,9.67
-0.07,-0.10,0.05,0.10,-0.04,9.55
-0.35,0.23,0.07,0.09,-0.03,9.66
-0.48,0.19,0.06,-0.06,-0.14,9.84
-0.46,-0.04,0.05,-0.13,-0.21,9.90
-0.37,-0.24,0.03,-0.05,-0.20,9.82
-0.17,-0.04,0.04,0.13,-0.07,9.66
-0.17,0.10,0.04,0.05,-0.05,9.77
-0.20,0.08,0.06,-0.04,-0.03,9.93
-0.39,-0.18,0.05,0.00,0.02,9.94
-0.55,-0.14,0.06,0.08,0.01,9.86
-0.65,-0.03,0.03,0.09,-0.07,9.84
-0.63,0.06,0.02,0.03,-0.15,9.89
-0.51,0.07,0.02,-0.03,-0.21,9.97
-0.31,-0.10,0.01,0.04,-0.19,9.93
-0.29,-0.05,0.02,0.09,-0.16,9.84
-0.25,0.03,0.02,0.09,-0.14,9.80
-0.16,0.07,0.02,0.06,-0.15,9.81
0.13,-0.05,0.04,0.03,-0.11,9.73
0.36,-0.12,0.05,0.09,0.01,9.62
0.53,-0.04,0.05,0.15,0.15,9.54
0.34,0.16,0.08,0.10,0.17,9.75
0.13,0.10,0.10,0.01,-0.03,9.91
0.12,-0.03,0.08,-0.05,-0.26,9.94
0.33,-0.14,0.07,-0.01,-0.31,9.88
0.53,-0.14,0.08,0.10,-0.15,9.83
0.21,0.06,0.11,0.09,0.15,9.88
-0.09,0.04,0.08,-0.02,0.05,9.90
-0.07,-0.12,0.08,-0.05,-0.08,9.80
0.28,-0.21,0.10,0.04,-0.03,9.64
0.60,0.04,0.12,0.16,0.41,9.49
0.43,0.17,0.11,0.08,0.38,9.63
0.37,0.17,0.12,-0.03,0.26,9.79
0.37,-0.00,0.12,-0.06,0.19,9.82
0.57,-0.10,0.14,0.14,0.19,9.71
0.60,0.07,0.15,0.14,0.17,9.77
0.57,0.18,0.14,0.03,0.13,9.94
0.53,0.06,0.14,-0.08,0.11,10.06
0.74,-0.28,0.09,0.03,0.27,9.84
0.85,-0.20,0.08,0.14,0.41,9.66
0.93,-0.03,0.11,0.16,0.50,9.64
0.96,0.10,0.14,0.07,0.55,9.75
0.92,-0.12,0.11,-0.05,0.58,9.91
0.89,-0.22,0.09,0.04,0.61,9.84
0.79,-0.16,0.10,0.13,0.63,9.76
0.72,0.00,0.11,0.12,0.58,9.81
0.73,0.02,0.08,-0.07,0.43,10.05
0.82,-0.15,0.08,-0.06,0.46,10.04
0.88,-0.23,0.07,0.03,0.55,9.92
0.89,-0.13,0.06,0.11,0.65,9.81
0.82,0.03,0.08,0.10,0.71,9.78
0.77,0.01,0.02,-0.03,0.79,9.86
0.79,-0.13,0.03,-0.02,0.84,9.85
0.83,-0.23,0.04,0.04,0.87,9.80
0.79,-0.17,0.04,0.11,0.89,9.72
0.75,-0.10,0.06,0.12,0.88,9.73
0.74,-0.01,0.06,0.10,0.87,9.77
0.75,0.01,0.07,0.06,0.85,9.83
0.76,-0.16,0.10,0.03,0.86,9.88
0.75,-0.19,0.10,0.07,0.90,9.85
0.80,-0.17,0.11,0.08,0.93,9.81
0.82,-0.17,0.10,0.07,0.96,9.78
0.83,-0.19,0.12,0.06,0.99,9.77
1.04,-0.22,0.16,0.04,1.09,9.71
1.19,-0.28,0.17,0.05,1.16,9.68
1.35,-0.32,0.19,0.07,1.23,9.68
1.34,-0.24,0.20,0.10,1.32,9.70
1.12,-0.13,0.22,0.10,1.31,9.74
0.99,-0.04,0.22,0.05,1.26,9.77
1.01,-0.07,0.21,-0.00,1.21,9.81
1.29,-0.21,0.19,0.02,1.25,9.84
1.39,-0.22,0.16,0.04,1.30,9.83
1.42,-0.20,0.15,0.04,1.36,9.83
1.46,-0.22,0.17,0.04,1.42,9.83
1.46,-0.28,0.17,0.07,1.50,9.83
1.43,-0.26,0.18,0.07,1.52,9.82
1.38,-0.23,0.19,0.07,1.54,9.80
1.39,-0.22,0.20,0.07,1.57,9.80
1.27,-0.21,0.21,0.09,1.57,9.87
1.15,-0.19,0.19,0.08,1.55,9.89
1.07,-0.17,0.20,0.04,1.52,9.89
1.09,-0.18,0.20,0.01,1.52,9.88
1.36,-0.29,0.18,0.08,1.58,9.90
1.46,-0.30,0.21,0.11,1.64,9.90
1.45,-0.29,0.22,0.10,1.68,9.85
1.43,-0.29,0.21,0.08,1.73,9.80
1.53,-0.28,0.23,0.11,1.83,9.77
1.51,-0.23,0.26,0.14,1.86,9.80
1.36,-0.17,0.29,0.15,1.87,9.83
1.22,-0.10,0.29,0.12,1.85,9.83
1.27,-0.05,0.32,0.07,1.85,9.88
1.28,0.00,0.31,0.08,1.85,9.97
1.12,0.07,0.31,0.09,1.84,10.03
0.93,0.09,0.33,0.06,1.83,10.05
0.74,0.05,0.31,0.07,1.79,10.03
0.64,0.01,0.31,0.07,1.78,10.00
0.57,0.02,0.30,0.05,1.77,9.98
0.50,0.06,0.29,0.04,1.79,9.96
0.36,0.01,0.29,0.04,1.82,9.93
0.32,-0.10,0.29,0.06,1.83,9.88
0.33,-0.15,0.29,0.09,1.84,9.83
0.33,-0.08,0.27,0.09,1.86,9.81
0.07,-0.01,0.27,-0.00,1.88,9.85
-0.07,-0.10,0.27,0.04,1.84,9.94
-0.12,-0.18,0.30,0.05,1.77,9.92
-0.08,-0.19,0.28,0.01,1.70,9.85
0.04,-0.28,0.28,0.01,1.71,9.74
0.02,-0.26,0.28,0.08,1.75,9.76
-0.05,-0.19,0.28,0.09,1.76,9.77
-0.10,-0.12,0.30,0.01,1.75,9.72
0.00,-0.18,0.26,0.02,1.79,9.73
0.04,-0.08,0.30,0.08,1.85,9.81
-0.08,-0.04,0.33,0.05,1.89,9.81
-0.27,-0.12,0.33,0.06,1.87,9.85
-0.24,-0.10,0.34,0.01,1.77,9.82
-0.22,-0.20,0.32,-0.02,1.76,9.78
-0.21,-0.28,0.31,0.04,1.74,9.85
-0.19,-0.31,0.35,0.09,1.71,9.83
-0.11,-0.35,0.34,0.11,1.70,9.72
0.03,-0.29,0.41,0.09,1.69,9.66
0.11,-0.27,0.41,0.06,1.71,9.70
0.23,-0.26,0.38,0.03,1.76,9.78
0.30,-0.46,0.34,0.12,1.79,9.77
0.42,-0.39,0.37,0.21,1.83,9.79
0.50,-0.23,0.43,0.08,1.84,9.66
0.55,-0.23,0.43,0.06,1.84,9.65
0.68,-0.14,0.46,0.09,1.89,9.74
0.68,-0.20,0.47,0.07,1.89,9.68
0.72,-0.21,0.49,0.16,1.87,9.76
0.74,-0.13,0.49,0.15,1.87,9.70
0.78,0.05,0.55,0.15,1.91,9.74
0.78,0.13,0.55,0.12,1.92,9.74
0.74,0.13,0.55,0.12,1.94,9.73
0.86,0.05,0.55,0.09,1.93,9.58
0.92,0.10,0.57,0.11,1.95,9.56
0.90,0.18,0.58,0.11,1.98,9.61
0.76,0.19,0.57,0.11,1.98,9.67
0.67,0.22,0.56,0.20,1.93,9.87
0.40,0.23,0.54,-0.03,1.88,9.89
0.34,0.08,0.54,-0.02,1.83,9.97
0.27,-0.08,0.56,0.11,1.76,9.92
0.43,-0.06,0.56,0.15,1.74,9.77
0.65,0.21,0.61,0.19,1.86,9.55
0.65,0.44,0.60,0.25,1.91,9.65
0.56,0.73,0.58,0.17,1.94,9.70
0.41,0.90,0.59,0.07,1.94,9.70
0.46,0.96,0.55,0.07,1.79,9.88
0.60,0.90,0.55,0.06,1.74,9.80
0.67,0.89,0.50,0.07,1.73,9.87
0.63,0.93,0.52,0.06,1.74,9.93
0.56,0.63,0.43,-0.11,1.73,9.98
0.66,0.42,0.41,-0.06,1.75,10.11
0.58,0.21,0.40,-0.03,1.80,10.21
0.31,-0.00,0.37,-0.08,1.78,10.23
0.19,-0.40,0.35,-0.07,1.69,10.18
0.23,-0.46,0.35,-0.09,1.71,10.18
0.14,-0.53,0.39,-0.04,1.76,10.16
-0.02,-0.59,0.41,-0.02,1.77,10.13
-0.14,-0.48,0.44,0.01,1.74,9.96
-0.15,-0.30,0.45,-0.10,1.76,9.84
-0.21,-0.20,0.48,-0.05,1.73,9.79
-0.27,-0.10,0.49,0.06,1.66,9.87
-0.24,0.10,0.54,-0.03,1.62,9.69
-0.11,0.14,0.56,-0.02,1.65,9.70
-0.03,0.21,0.61,-0.05,1.65,9.70
-0.08,0.21,0.58,-0.00,1.65,9.70
-0.07,0.14,0.58,0.02,1.53,9.64
0.04,0.02,0.59,-0.01,1.52,9.54
0.38,-0.02,0.58,0.07,1.53,9.55
0.61,0.01,0.57,0.12,1.65,9.62
0.35,-0.08,0.58,0.05,1.81,9.72
0.07,-0.25,0.57,0.13,1.66,9.80
0.25,-0.23,0.57,0.12,1.54,9.81
0.51,-0.22,0.59,0.03,1.55,9.78
0.46,-0.34,0.60,0.10,1.64,9.89
-0.04,-0.41,0.62,0.06,1.65,9.97
-0.04,-0.46,0.66,0.09,1.55,9.96
0.07,-0.51,0.69,0.05,1.57,9.92
0.07,-0.38,0.69,0.14,1.76,10.01
-0.33,-0.29,0.70,0.11,1.73,10.02
-0.52,-0.13,0.71,0.09,1.61,10.03
-0.49,-0.10,0.74,0.10,1.47,10.04
-0.27,0.02,0.83,0.11,1.58,10.06
-0.36,0.08,0.88,0.03,1.68,9.98
-0.59,0.14,0.85,0.05,1.62,10.06
-0.75,0.25,0.85,0.09,1.50,10.12
-0.73,0.15,0.82,0.04,1.34,10.08
-0.76,0.16,0.84,0.07,1.31,10.06
-0.80,0.14,0.81,0.03,1.32,9.92
-0.73,0.18,0.81,0.04,1.33,9.89
-0.71,0.10,0.76,0.01,1.39,9.74
-0.69,0.08,0.72,0.07,1.39,9.72
-0.69,0.06,0.74,0.13,1.40,9.60
-0.51,0.10,0.75,0.04,1.45,9.42
-0.13,0.06,0.76,0.17,1.48,9.37
-0.05,0.23,0.77,0.17,1.47,9.42
-0.03,0.42,0.76,0.09,1.47,9.46
-0.10,0.38,0.73,-0.02,1.47,9.53
0.08,0.03,0.73,0.05,1.33,9.75
0.23,-0.03,0.75,0.09,1.32,9.83
0.32,0.03,0.79,0.06,1.36,9.85
0.22,0.00,0.84,0.02,1.37,9.89
0.14,0.07,0.83,-0.06,1.55,10.02
0.03,0.05,0.83,-0.14,1.67,9.99
-0.16,-0.02,0.86,-0.05,1.68,10.04
-0.49,-0.01,0.88,0.12,1.64,10.13
-0.86,0.25,0.95,0.10,1.51,10.00
-0.96,0.37,0.97,-0.02,1.43,9.94
-1.12,0.40,0.98,-0.05,1.36,9.93
-1.16,0.44,0.95,-0.02,1.29,9.93
-1.09,0.58,0.98,0.20,1.17,9.83
-0.85,0.70,1.02,0.19,1.26,9.65
-0.70,0.75,1.06,0.08,1.32,9.56
-0.55,0.81,1.05,-0.02,1.35,9.48
-0.18,0.89,0.96,0.06,1.35,9.41
0.06,0.88,0.94,0.09,1.39,9.41
0.32,0.95,0.97,0.16,1.51,9.48
0.36,1.00,0.96,0.14,1.62,9.49
0.01,0.98,0.92,0.07,1.41,9.71
0.07,0.95,0.87,0.04,1.27,9.94
0.15,0.86,0.82,-0.07,1.23,10.05
0.25,0.67,0.77,-0.18,1.27,10.13
0.14,0.09,0.74,-0.06,1.41,9.97
0.09,0.00,0.73,0.14,1.41,9.91
0.09,0.17,0.78,0.03,1.43,9.78
0.20,0.23,0.79,-0.18,1.50,9.66
0.05,-0.02,0.70,-0.19,1.59,9.76
-0.09,-0.04,0.71,-0.15,1.52,9.59
-0.04,-0.05,0.73,-0.16,1.37,9.46
0.12,-0.04,0.74,0.04,1.27,9.49
0.41,0.27,0.88,-0.13,1.45,9.64
0.28,0.27,0.87,-0.29,1.42,9.74
0.08,0.17,0.84,-0.27,1.34,9.90
0.11,0.15,0.77,-0.14,1.28,9.95
0.36,-0.03,0.89,-0.06,1.34,9.84
0.46,0.14,0.92,0.03,1.48,9.87
0.48,0.24,0.99,0.00,1.52,9.90
0.42,0.26,0.98,-0.06,1.57,10.03
0.08,0.03,1.04,-0.05,1.50,9.96
-0.04,0.02,1.05,0.13,1.38,9.98
0.12,0.25,1.08,0.14,1.32,9.99
0.29,0.26,1.14,-0.02,1.36,9.94
0.13,-0.01,1.25,0.22,1.46,10.21
-0.19,0.13,1.33,0.22,1.36,10.13
-0.41,0.26,1.38,0.15,1.20,10.03
-0.17,0.35,1.42,0.08,1.14,10.04
0.16,0.42,1.49,0.05,1.49,10.07
0.00,0.35,1.53,0.08,1.62,9.96
-0.15,0.25,1.61,0.29,1.60,10.06
-0.24,0.37,1.69,0.16,1.50,10.08
-0.24,0.21,1.65,-0.19,1.24,9.87
0.05,-0.05,1.64,-0.23,1.23,9.88
0.24,-0.23,1.62,-0.11,1.38,9.84
0.34,-0.28,1.64,0.09,1.53,9.85
-0.20,-0.22,1.72,-0.14,1.39,9.54
-0.24,-0.11,1.73,-0.13,1.19,9.51
0.09,0.01,1.63,-0.07,1.14,9.43
0.74,0.18,1.63,-0.10,1.35,9.45
0.56,0.26,1.61,-0.14,1.71,9.37
0.29,0.33,1.63,0.08,1.56,9.47
0.38,0.60,1.64,-0.01,1.36,9.34
0.73,0.71,1.64,-0.26,1.32,9.13
1.27,0.56,1.56,-0.00,1.54,9.58
0.84,0.62,1.55,0.14,1.55,9.77
0.52,0.60,1.61,-0.08,1.36,9.68
0.64,0.41,1.69,-0.19,1.11,9.69
1.44,0.17,1.69,-0.11,1.56,10.21
1.08,-0.01,1.69,-0.16,1.76,10.26
0.43,-0.18,1.70,-0.06,1.61,10.31
0.15,-0.22,1.71,0.01,1.41,10.10
0.78,0.12,1.73,-0.04,1.57,9.81
0.55,0.20,1.76,-0.22,1.70,9.73
0.16,0.07,1.73,-0.23,1.58,9.88
-0.11,-0.09,1.70,-0.03,1.31,10.04
0.03,-0.04,1.69,0.04,1.15,9.81
0.66,0.15,1.71,-0.15,1.36,9.56
0.58,0.21,1.68,-0.07,1.49,9.71
0.38,0.26,1.69,0.01,1.46,9.82
0.73,0.24,1.73,-0.21,1.22,9.42
1.28,0.24,1.70,-0.12,1.30,9.33
1.68,0.31,1.67,0.01,1.53,9.40
1.67,0.50,1.66,0.07,1.69,9.48
1.27,0.89,1.69,0.13,1.42,9.57
1.52,1.23,1.70,0.01,1.35,9.72
1.68,1.43,1.73,-0.12,1.43,10.05
1.58,1.25,1.71,-0.31,1.49,10.27
1.34,0.84,1.63,-0.29,1.46,10.48
1.11,0.33,1.63,-0.03,1.26,10.32
1.27,0.26,1.62,-0.11,1.32,10.16
1.31,0.10,1.66,-0.14,1.47,10.16
0.99,-0.37,1.78,-0.14,1.63,10.46
0.58,-0.52,1.80,0.00,1.61,10.35
0.31,-0.51,1.81,-0.05,1.52,10.06
0.29,-0.29,1.80,-0.12,1.43,9.90
0.24,0.07,1.82,-0.10,1.44,9.97
0.29,0.02,1.92,-0.10,1.46,9.87
0.19,0.09,1.97,0.17,1.43,10.05
-0.07,0.42,2.03,0.12,1.36,10.03
0.09,0.47,1.92,-0.39,1.09,9.66
0.72,0.36,1.93,-0.17,1.22,9.92
0.92,0.18,1.92,-0.05,1.66,9.96
0.60,0.02,1.90,-0.12,1.87,9.78
-0.31,0.06,1.86,-0.14,1.28,9.55
0.24,0.19,1.82,-0.26,1.15,9.48
0.88,0.10,1.80,-0.16,1.37,9.76
0.90,-0.02,1.73,-0.08,1.73,9.94
-0.40,0.15,1.59,-0.23,1.48,9.72
-0.36,0.22,1.56,-0.34,1.12,9.50
0.38,0.25,1.49,-0.13,1.06,9.78
0.80,0.26,1.49,0.02,1.42,9.97
-0.20,0.24,1.47,0.03,1.68,9.78
-0.55,0.55,1.47,-0.05,1.30,9.56
-0.29,0.70,1.43,-0.18,1.10,9.51
0.36,0.76,1.42,-0.10,1.28,9.77
0.29,0.33,1.50,0.07,1.72,9.95
-0.21,0.48,1.50,0.19,1.62,10.06
-0.52,0.84,1.45,-0.16,1.30,9.86
-0.36,0.78,1.43,-0.38,1.04,9.91
0.60,0.20,1.35,0.02,1.28,10.40
0.63,0.02,1.39,-0.00,1.63,10.27
0.13,-0.13,1.40,-0.24,1.69,9.93
-0.27,-0.27,1.29,-0.28,1.42,9.77
0.42,-0.50,1.17,-0.27,1.04,9.70
1.05,-0.86,1.19,-0.12,1.29,9.69
1.38,-1.12,1.22,-0.15,1.64,9.53
1.24,-1.13,1.21,-0.18,1.82,9.33
0.38,-0.38,1.05,-0.14,1.45,9.32
0.31,-0.05,0.99,-0.16,1.22,9.50
0.73,0.04,0.95,-0.19,1.26,9.76
1.01,-0.10,0.92,-0.21,1.45,9.95
0.29,0.03,0.87,-0.16,1.63,9.98
-0.26,0.17,0.83,-0.14,1.44,9.88
-0.31,0.43,0.75,0.11,1.21,10.12
-0.15,0.62,0.77,0.14,1.17,10.13
0.46,0.58,0.77,0.19,1.44,10.03
0.49,0.87,0.75,0.12,1.60,10.20
0.12,0.97,0.69,-0.32,1.59,10.21
-0.39,0.38,0.52,-0.40,1.38,10.30
0.19,-0.83,0.61,0.24,1.13,10.52
0.43,-1.04,0.67,0.05,1.42,10.25
0.21,-1.20,0.67,0.00,1.64,10.21
-0.46,-1.29,0.63,-0.08,1.60,10.13
-0.45,-1.23,0.61,-0.09,1.05,10.07
-0.12,-1.25,0.63,0.10,1.20,10.05
0.12,-1.05,0.68,0.25,1.53,9.99
-0.21,-0.67,0.74,0.17,1.65,9.77
-0.95,0.44,0.64,-0.07,1.34,9.54
-0.67,0.65,0.62,-0.20,1.25,9.45
-0.27,0.48,0.59,-0.17,1.34,9.43
-0.11,0.27,0.56,-0.06,1.47,9.41
-0.58,-0.10,0.52,-0.06,1.44,8.99
-0.51,-0.07,0.52,0.14,1.35,8.99
-0.40,0.09,0.54,0.14,1.31,9.03
-0.30,0.18,0.57,0.11,1.38,9.05
-0.10,0.33,0.53,0.05,1.54,9.40
-0.24,0.38,0.54,0.02,1.54,9.37
-0.31,0.40,0.52,-0.02,1.47,9.32
-0.12,0.54,0.49,0.02,1.36,9.36
-0.10,1.01,0.45,0.18,1.21,9.65
0.15,1.23,0.40,-0.03,1.30,9.79
0.39,1.22,0.43,-0.18,1.43,9.97
0.29,0.99,0.42,-0.26,1.49,10.20
-0.21,0.54,0.27,0.09,1.19,10.29
0.09,0.51,0.33,0.09,1.12,10.11
0.47,0.47,0.39,0.06,1.19,10.05
0.77,0.59,0.35,-0.08,1.40,10.20
0.11,0.26,0.25,-0.42,1.46,10.38
0.05,-0.31,0.18,-0.34,1.19,10.49
0.35,-0.94,0.18,-0.22,1.08,10.49
0.98,-1.75,0.21,-0.22,1.70,10.27
0.32,-1.93,0.29,-0.01,1.78,10.30
-0.55,-1.85,0.37,-0.07,1.51,10.11
-0.59,-1.72,0.40,-0.04,1.17,9.92
0.04,-1.52,0.42,0.02,1.14,9.87
0.34,-0.89,0.41,0.08,1.58,9.64
-0.15,-0.29,0.48,0.45,1.52,9.81
-0.65,0.55,0.57,0.49,1.30,9.86
-0.57,1.17,0.64,0.30,1.12,9.88
0.37,1.76,0.57,-0.05,1.26,10.19
0.28,1.80,0.49,-0.08,1.44,10.29
0.02,1.46,0.41,-0.17,1.47,10.13
0.12,0.16,0.44,0.31,1.04,9.80
0.79,-0.11,0.51,0.15,1.13,9.53
0.88,-0.43,0.44,-0.31,1.41,9.20
0.70,-0.95,0.40,-0.31,1.58,9.27
0.34,-1.42,0.36,-0.07,1.49,9.58
0.12,-1.69,0.32,-0.15,1.38,9.49
0.46,-2.44,0.41,-0.15,1.34,9.40
0.43,-2.37,0.41,-0.15,1.33,9.36
0.26,-2.16,0.44,-0.10,1.23,9.30
0.76,-1.27,0.46,-0.15,1.28,9.10
0.96,-0.81,0.44,0.02,1.35,9.16
1.06,-0.17,0.40,0.00,1.41,9.16
0.94,0.39,0.37,0.01,1.42,9.13
0.95,1.04,0.31,-0.07,1.32,9.34
1.18,1.09,0.29,0.15,1.28,9.56
1.35,1.23,0.29,0.19,1.26,9.70
1.62,1.28,0.31,0.01,1.31,9.44
2.10,1.30,0.28,0.05,1.45,9.64
1.56,1.18,0.23,0.05,1.56,10.11
1.29,0.80,0.19,0.08,1.37,10.38
1.43,0.59,0.16,0.14,1.16,10.53
1.81,0.01,0.25,0.05,1.49,10.64
1.62,-0.15,0.25,0.07,1.59,10.76
1.19,-0.21,0.27,0.14,1.65,10.84
0.48,-0.28,0.25,0.08,1.53,10.82
0.02,-0.50,0.23,-0.02,1.29,10.81
-0.17,-0.69,0.24,-0.13,1.29,10.80
-0.28,-0.95,0.30,-0.20,1.38,10.51
-0.41,-1.27,0.32,-0.02,1.47,10.37
-0.75,-1.26,0.47,-0.02,1.45,9.81
-0.89,-1.43,0.38,-0.31,1.41,9.28
-1.13,-1.16,0.35,-0.00,1.33,9.32
-1.17,-0.51,0.28,0.15,1.38,9.14
-1.12,-0.09,0.36,0.41,1.36,9.44
-1.16,0.33,0.47,0.39,1.46,9.73
-1.36,0.78,0.51,0.13,1.52,9.88
-1.67,1.06,0.43,-0.10,1.53,10.01
-2.28,0.61,0.19,-0.23,0.79,10.01
-1.29,0.44,0.06,0.25,0.81,10.06
-0.04,0.31,0.15,0.36,1.43,9.73
-0.14,0.23,0.32,0.32,1.96,9.63
-2.39,1.14,0.33,0.13,1.48,8.97
-2.55,1.39,0.23,-0.02,1.04,9.08
-2.09,1.35,0.02,-0.02,0.82,9.29
-1.11,0.96,-0.10,-0.19,0.93,9.44
0.02,-0.46,-0.03,-0.30,1.68,9.53
-0.74,-0.72,0.02,0.40,1.49,9.90
-1.20,0.04,0.04,0.46,1.12,10.06
-1.32,0.69,0.03,-0.17,1.08,9.62
-0.32,0.60,-0.30,-0.34,1.18,10.15
-0.13,0.50,-0.33,-0.45,1.46,10.14
-0.36,0.16,-0.37,-0.22,1.53,10.18
-0.73,-0.06,-0.25,0.47,1.34,10.45
-0.58,0.43,-0.08,-0.07,1.13,9.92
-0.21,0.49,-0.15,-0.18,1.35,10.25
-0.33,0.54,-0.18,-0.21,1.65,10.61
-0.86,0.37,-0.19,0.03,1.68,10.98
-2.10,-0.16,0.09,0.26,1.27,10.70
-2.03,-0.26,0.16,0.25,1.04,10.21
-1.62,0.07,0.22,0.14,1.07,10.00
-1.44,0.38,0.23,-0.03,1.34,9.95
-2.32,-0.05,0.19,0.05,1.33,10.16
-2.40,-0.36,0.23,0.23,1.05,9.87
-1.79,-0.48,0.31,0.02,0.92,9.15
-0.96,-0.43,0.39,0.08,0.94,8.67
-0.43,0.71,0.24,0.20,1.41,8.27
-0.59,1.15,0.19,0.19,1.43,8.29
-0.54,1.19,0.13,0.01,1.33,8.32
-0.29,1.05,0.09,-0.12,1.09,8.44
0.42,0.36,0.04,-0.30,1.06,8.88
0.88,-0.12,0.02,-0.34,1.18,9.19
1.13,-0.86,-0.03,-0.38,1.34,9.25
1.25,-1.34,-0.01,-0.07,1.44,9.70
-0.47,-1.11,-0.23,-0.73,1.27,9.50
0.02,-1.70,-0.23,-0.57,1.12,9.11
1.49,-1.81,0.06,0.37,1.21,9.85
2.00,-1.12,0.08,0.35,1.70,9.84
-0.40,0.56,-0.03,-0.06,1.28,9.46
-0.90,1.54,-0.12,-0.49,0.94,9.14
0.17,1.82,-0.20,-0.07,0.85,9.67
1.58,1.67,-0.17,0.20,1.17,10.25
0.25,1.87,0.00,0.60,1.73,10.39
-1.07,2.49,0.00,0.00,1.20,10.05
-1.11,2.68,-0.17,-0.37,0.75,9.83
0.06,2.09,-0.23,-0.25,0.89,10.18
0.93,0.75,-0.16,0.56,1.70,10.94
-0.16,0.49,-0.00,0.24,1.82,10.70
-1.36,0.01,0.05,-0.03,1.40,10.64
-0.45,-1.06,0.01,-0.24,0.92,10.44
0.20,-1.72,0.06,0.12,1.20,10.40
0.23,-1.92,0.11,0.27,1.41,10.24
-0.27,-1.69,0.16,0.16,1.38,9.82
-0.68,-1.25,0.20,0.10,1.21,9.68
-0.31,-0.64,0.14,-0.18,1.09,9.47
-0.00,-0.63,0.13,0.11,1.10,9.70
0.19,-0.28,0.26,0.39,1.16,9.69
0.35,0.51,0.31,0.19,1.28,9.44
0.22,1.74,0.21,0.11,1.26,9.26
0.19,2.12,0.14,0.08,1.28,9.31
0.19,2.20,0.14,0.10,1.15,9.41
0.44,1.78,0.12,-0.08,1.16,9.61
0.50,1.29,0.10,-0.26,1.28,9.71
0.42,0.50,0.09,-0.38,1.35,9.60
0.36,-0.28,0.05,-0.49,1.25,9.53
0.41,-0.94,-0.05,-0.49,1.16,9.45
0.75,-2.12,-0.13,-0.16,1.08,9.72
1.13,-2.31,-0.10,-0.28,1.21,9.78
1.26,-2.52,-0.07,-0.37,1.40,9.92
1.00,-2.69,-0.10,-0.37,1.59,10.13
-0.18,-2.20,-0.24,-0.26,1.16,10.08
0.02,-1.72,-0.31,-0.13,0.97,10.16
0.28,-1.21,-0.34,-0.14,1.11,10.11
0.01,-0.33,-0.20,0.34,1.50,10.19
-0.63,0.45,-0.09,0.39,1.30,9.77
-0.67,1.24,-0.08,0.47,0.94,9.45
0.05,2.17,-0.12,0.43,0.88,9.48
0.49,2.95,-0.15,0.35,1.06,9.81
0.01,2.57,-0.12,0.20,1.41,10.13
-0.26,1.96,-0.04,0.43,1.15,10.15
0.14,1.75,0.02,0.56,1.05,10.12
0.22,1.53,0.08,0.36,1.05,9.95
0.38,0.33,0.10,-0.12,1.32,10.10
0.36,-0.50,0.03,-0.18,1.32,10.02
0.38,-1.35,0.02,0.03,1.27,9.93
0.51,-1.80,0.09,0.09,1.14,9.66
0.89,-1.97,0.06,0.09,1.10,9.31
1.14,-1.68,0.08,0.04,1.27,9.40
1.11,-1.41,0.09,0.06,1.40,9.48
1.08,-1.02,0.07,-0.01,1.50,9.66
-0.04,-0.10,-0.09,-0.12,1.15,9.47
0.19,0.56,-0.11,0.06,0.98,9.68
0.65,1.19,-0.08,0.04,1.03,9.67
0.84,1.34,-0.07,-0.01,1.28,9.68
0.33,1.67,-0.14,-0.07,1.52,9.99
-0.38,1.69,-0.21,-0.23,1.25,9.97
-0.44,1.59,-0.35,-0.24,1.04,10.27
-0.12,1.17,-0.31,-0.26,1.10,10.54
-0.43,-0.60,-0.29,-0.15,1.29,10.63
-0.69,-0.93,-0.21,0.05,1.19,10.19
-0.55,-0.91,-0.28,0.03,1.07,9.96
-0.27,-0.83,-0.30,-0.08,1.14,9.92
-0.07,-0.99,-0.25,-0.08,1.22,10.07
-0.44,-1.50,-0.23,0.14,1.23,9.97
-0.53,-1.32,-0.16,0.26,1.05,9.90
-0.27,-0.94,-0.10,0.16,0.97,9.74
-0.01,-0.38,-0.05,0.09,1.49,10.05
-0.51,-0.12,-0.09,0.17,1.44,10.12
-1.13,0.25,-0.07,0.32,1.13,10.03
-1.38,0.75,-0.02,0.42,0.68,9.78
0.10,1.58,-0.04,0.07,0.88,9.54
0.05,1.51,-0.08,0.04,1.28,9.64
-0.49,1.30,-0.12,0.16,1.36,9.65
-0.84,1.16,-0.14,0.22,1.09,9.50
-0.29,0.74,-0.16,0.12,0.82,9.14
0.39,0.48,-0.11,-0.04,1.09,9.18
0.57,0.12,-0.16,-0.09,1.31,9.36
-0.00,-0.33,-0.21,-0.03,1.35,9.64
-0.25,-1.04,-0.26,-0.27,0.93,9.39
0.13,-1.36,-0.33,-0.05,0.81,9.45
0.52,-1.22,-0.33,-0.01,0.87,9.40
0.29,-0.90,-0.31,0.05,0.86,9.32
-0.10,0.27,-0.44,-0.03,0.76,9.79
-0.21,0.69,-0.54,-0.16,0.71,10.21
-0.09,0.64,-0.62,-0.40,0.78,10.47
-0.10,0.21,-0.68,-0.29,0.80,10.54
-0.51,0.28,-0.68,0.19,0.76,10.06
-0.65,0.76,-0.71,0.35,0.72,10.05
-0.55,1.24,-0.65,0.31,0.72,10.35
-0.55,1.37,-0.66,0.17,0.86,10.67
-1.19,0.63,-0.59,0.13,1.00,10.79
-1.79,0.46,-0.56,0.28,0.73,10.66
-1.72,0.65,-0.50,0.33,0.67,10.30
-1.61,0.62,-0.48,0.26,0.67,9.99
-0.98,0.22,-0.43,-0.03,0.67,9.69
-1.01,-0.15,-0.48,0.10,0.63,9.62
-1.00,-0.33,-0.48,0.10,0.60,9.60
-1.49,-0.54,-0.49,-0.01,0.50,9.37
-1.76,-0.74,-0.50,0.15,0.22,9.23
-1.52,-0.71,-0.47,-0.01,0.16,9.03
-0.94,-0.62,-0.52,-0.13,0.26,8.92
-0.76,-0.67,-0.52,-0.01,0.37,9.10
-0.64,-0.25,-0.75,-0.13,0.48,8.99
-0.21,-0.37,-0.74,-0.22,0.60,9.04
0.08,-0.41,-0.79,-0.17,0.83,9.24
-0.27,-0.46,-0.80,-0.02,0.82,9.42
-0.28,-0.19,-0.91,0.02,0.49,9.44
0.06,-0.18,-0.93,-0.27,0.45,9.46
0.02,-0.08,-1.05,-0.01,0.35,9.77
-0.08,0.16,-1.13,0.22,0.32,10.10
-0.42,0.35,-1.21,-0.10,0.36,10.56
-0.87,-0.07,-1.23,0.07,0.31,10.89
-0.68,-0.18,-1.23,0.01,0.34,10.93
-0.51,-0.43,-1.20,-0.09,0.54,10.67
-1.35,-0.74,-1.17,0.52,0.63,10.36
-1.21,-0.26,-1.11,0.54,0.63,10.02
-1.01,0.19,-1.05,0.34,0.72,9.96
-1.26,0.38,-1.04,0.38,0.70,10.19
-1.95,0.54,-1.00,0.23,0.24,10.18
-1.96,0.69,-1.04,0.44,0.05,9.98
-1.43,0.98,-1.03,0.56,0.10,10.00
-1.24,1.29,-0.97,0.40,0.12,9.99
-1.19,1.19,-1.07,0.12,0.14,9.68
-0.53,0.93,-1.09,0.10,0.19,9.54
-0.43,0.34,-1.02,0.17,0.26,9.33
0.01,-0.03,-1.00,0.26,0.32,8.98
1.13,-0.07,-1.08,0.24,0.75,8.32
0.85,0.13,-1.18,0.23,0.75,8.41
0.52,0.29,-1.26,0.04,0.67,8.51
0.71,0.21,-1.29,-0.01,0.52,8.88
1.30,-1.10,-1.29,-0.47,0.39,9.61
1.50,-1.82,-1.31,-0.38,0.38,9.75
1.64,-2.31,-1.34,-0.36,0.48,9.64
1.43,-2.32,-1.43,-0.16,0.39,9.61
1.25,-1.46,-1.56,0.05,0.62,9.91
1.15,-1.23,-1.53,0.06,0.72,10.08
0.82,-1.17,-1.43,0.22,0.66,10.26
0.87,-0.69,-1.39,0.23,0.63,10.46
0.70,-0.50,-1.46,-0.11,0.80,10.26
0.70,-0.66,-1.46,0.39,0.71,10.37
0.72,-0.32,-1.30,0.63,0.66,10.39
0.19,0.16,-1.29,0.48,0.61,10.35
-0.65,0.47,-1.21,0.35,0.24,10.82
-0.66,0.32,-1.23,0.15,0.30,10.71
-0.58,0.30,-1.26,0.14,0.49,10.28
-0.79,0.15,-1.27,0.61,0.46,9.94
-0.85,1.14,-1.15,0.67,0.30,9.72
-0.84,1.30,-1.25,0.17,0.31,9.32
0.12,0.80,-1.25,0.00,0.37,9.07
1.32,0.34,-1.20,0.51,0.61,9.67
-0.27,0.65,-1.27,0.07,0.74,9.99
-0.35,0.14,-1.41,-0.11,0.62,9.55
0.59,-0.34,-1.30,0.08,0.51,9.74
0.32,-0.38,-1.31,0.19,0.52,10.05
-0.02,-0.56,-1.39,0.04,0.35,9.51
0.09,-0.78,-1.34,0.23,0.01,9.51
0.54,-0.24,-1.44,-0.09,0.02,9.29
1.37,-0.12,-1.65,0.18,0.97,9.81
0.47,-0.06,-1.61,0.22,0.98,10.15
-0.35,0.04,-1.60,-0.15,0.78,9.65
-0.02,-0.14,-1.54,0.08,0.60,9.53
0.13,-0.18,-1.49,0.28,0.52,9.86
-0.20,0.06,-1.47,0.16,0.61,9.85
-1.12,0.02,-1.44,0.25,0.44,10.50
-1.63,-0.08,-1.38,0.01,0.29,10.62
-2.04,-0.37,-1.33,-0.07,0.16,10.72
-1.96,-1.02,-1.29,0.25,0.21,10.83
-2.46,-0.96,-1.16,0.18,0.26,10.40
-2.72,-0.77,-1.20,0.19,0.33,9.86
-2.61,-0.65,-1.13,0.36,0.28,9.50
-2.51,0.10,-1.16,0.27,0.03,8.92
-1.77,0.26,-1.12,0.17,0.07,8.51
-1.34,0.28,-1.11,0.56,-0.09,8.73
-0.79,0.84,-1.03,0.60,-0.06,8.84
-0.19,1.29,-0.99,0.25,0.07,8.72
-0.27,0.98,-1.14,0.33,-0.01,9.55
-0.22,1.17,-1.15,0.21,-0.12,9.87
0.14,0.79,-1.10,-0.17,-0.01,9.69
0.40,-0.24,-1.15,0.14,0.32,9.92
0.26,-0.15,-1.17,0.25,0.28,9.51
0.30,-0.08,-1.16,0.19,0.16,9.50
0.49,0.02,-1.15,0.10,0.24,9.88
0.13,-0.34,-1.18,0.15,0.50,10.31
-0.08,-0.44,-1.07,0.20,0.44,10.35
-0.49,-0.24,-1.04,0.15,0.33,10.39
-0.86,0.11,-1.03,0.30,0.26,10.56
-1.60,0.48,-0.94,0.09,0.32,10.75
-2.31,0.32,-0.92,0.01,0.07,10.47
-2.21,0.24,-0.89,0.21,-0.16,10.06
-1.78,0.50,-0.88,0.43,-0.13,9.76
-1.91,1.29,-0.81,0.05,0.06,9.49
-2.03,0.90,-0.80,0.02,-0.07,9.40
-1.75,0.67,-0.87,0.23,-0.23,9.62
-1.49,0.85,-0.90,0.21,-0.33,9.70
-0.53,0.15,-0.87,-0.03,0.03,9.35
-0.24,-0.29,-0.90,-0.04,0.10,9.24
-0.16,-0.39,-0.93,0.09,0.14,9.02
-0.26,-0.46,-0.83,0.43,0.02,9.05
-0.27,0.59,-0.87,0.14,-0.25,8.98
0.69,0.85,-0.83,0.02,-0.10,8.98
1.24,0.93,-0.82,0.03,0.14,9.51
0.97,1.13,-0.85,-0.00,0.42,9.84
-0.19,0.99,-0.95,0.15,0.04,10.15
-0.04,0.83,-0.91,-0.27,-0.35,9.85
0.76,0.49,-0.90,-0.31,-0.35,9.70
1.47,0.07,-0.94,0.10,0.06,9.97
0.28,-0.24,-0.94,-0.11,0.35,10.05
-0.03,-0.45,-1.01,-0.18,-0.11,10.00
0.39,-0.77,-1.00,0.07,-0.46,10.02
1.23,-0.59,-0.93,0.39,-0.28,10.19
0.69,-0.30,-0.84,-0.15,0.52,10.26
-0.13,-0.82,-0.87,-0.05,0.28,10.36
-0.38,-1.08,-0.91,-0.08,-0.03,9.95
0.15,-0.96,-0.89,0.01,-0.21,9.47
0.70,-0.33,-0.72,0.36,0.11,9.67
0.23,-0.10,-0.67,0.12,0.06,9.58
0.35,0.00,-0.68,0.01,-0.06,9.51
0.80,0.12,-0.65,0.25,-0.02,9.65
0.58,0.55,-0.67,0.11,0.05,9.61
0.57,0.51,-0.70,0.29,-0.09,9.90
0.94,0.46,-0.61,0.25,-0.14,10.18
1.12,0.31,-0.53,0.07,-0.03,10.12
0.92,-0.02,-0.48,0.15,0.35,9.82
0.46,0.24,-0.54,0.19,0.29,9.82
0.04,0.59,-0.58,0.29,0.05,9.79
0.07,0.63,-0.56,0.23,-0.19,9.74
1.19,0.51,-0.52,0.17,0.13,9.61
0.91,0.66,-0.53,0.26,0.27,9.80
0.40,0.90,-0.57,0.07,0.14,9.90
0.15,0.75,-0.63,-0.31,-0.03,9.66
0.62,0.38,-0.70,0.39,-0.06,9.94
0.55,0.66,-0.67,-0.03,0.13,9.69
0.26,0.51,-0.71,0.00,0.16,9.95
-0.16,0.33,-0.70,0.11,0.15,10.61
-1.03,-0.17,-0.72,-0.09,0.24,10.69
-1.29,-0.50,-0.58,0.21,0.24,10.64
-1.85,-0.24,-0.50,0.61,0.09,10.56
-2.12,0.56,-0.47,0.45,-0.02,10.32
-1.71,0.77,-0.45,-0.33,-0.01,9.79
-1.61,0.55,-0.53,0.18,0.02,9.96
-1.53,0.61,-0.40,0.41,0.05,9.69
-1.69,0.54,-0.34,0.06,-0.09,9.23
-1.13,0.12,-0.38,-0.05,-0.40,9.35
-0.47,-0.06,-0.40,-0.38,-0.25,9.41
-0.12,-0.54,-0.41,-0.39,0.06,9.51
-0.33,-1.10,-0.35,-0.11,0.18,9.64
-0.40,-1.35,-0.34,-0.01,-0.08,9.25
0.17,-1.04,-0.26,-0.06,-0.06,9.26
0.45,-0.87,-0.25,-0.07,0.10,9.48
0.11,-0.78,-0.22,-0.24,0.20,9.71
-0.10,-0.93,-0.27,-0.12,-0.41,9.80
0.76,-0.86,-0.19,-0.15,-0.32,9.76
1.50,-0.58,-0.14,0.00,0.05,9.87
1.20,-0.25,-0.06,0.25,0.50,10.24
-0.61,0.22,0.04,-0.02,0.13,10.31
-0.93,0.24,0.06,0.14,-0.38,10.39
-0.33,0.48,0.16,0.19,-0.36,10.29
0.15,0.71,0.20,0.19,0.21,10.16
-1.59,0.61,0.42,0.17,0.58,9.90
-2.25,0.78,0.44,0.21,0.01,9.85
-1.93,0.92,0.51,0.22,-0.51,9.69
-1.23,0.67,0.58,-0.02,-0.53,9.33
0.18,-0.06,0.61,0.10,-0.13,8.97
0.37,0.10,0.68,0.34,0.10,8.93
0.27,0.68,0.71,0.42,0.10,8.84
-0.04,1.10,0.74,0.24,-0.13,8.87
0.95,1.13,0.73,-0.21,-0.21,9.30
1.44,0.71,0.76,-0.23,0.04,9.63
1.27,0.34,0.81,-0.19,0.26,9.66
0.80,0.11,0.84,-0.03,-0.01,9.26
1.31,0.40,0.90,0.01,-0.15,9.58
1.34,0.62,0.88,-0.31,0.18,9.97
1.02,0.46,0.89,-0.45,0.49,10.28
0.34,-0.11,0.92,-0.27,0.33,10.70
-0.20,-0.46,0.95,-0.35,0.09,10.56
0.39,-0.47,1.08,-0.00,-0.26,9.64
0.74,0.10,1.14,0.19,-0.09,10.08
0.51,1.15,1.11,-0.19,0.19,10.66
-1.16,0.46,1.14,-0.57,0.15,11.26
-0.91,-0.14,1.23,-0.51,0.06,11.29
-1.00,-0.61,1.25,-0.23,0.13,11.01
-1.33,-0.88,1.30,-0.18,0.28,10.16
-1.27,-0.47,1.49,0.06,-0.41,9.13
-0.59,0.24,1.53,-0.02,-0.35,9.13
-0.17,0.48,1.52,-0.06,0.05,9.23
-0.12,0.43,1.63,0.01,0.30,9.44
-0.95,1.01,1.69,-0.04,-0.20,9.26
-0.47,1.33,1.64,-0.06,-0.58,9.23
0.41,1.39,1.68,-0.26,-0.47,9.53
1.22,1.16,1.69,-0.28,0.01,10.04
0.09,0.08,1.76,-0.26,0.55,9.91
-0.67,-0.09,1.82,-0.14,0.22,9.80
-0.90,-0.12,1.85,-0.31,-0.27,9.72
-0.12,-0.44,1.83,-0.72,-0.36,9.42
0.93,-1.20,1.84,-0.12,0.28,9.36
0.42,-0.90,1.93,-0.00,0.33,9.32
-0.03,-0.48,1.98,-0.17,0.01,9.28
0.21,-0.21,2.06,-0.40,-0.37,9.38
1.70,-0.03,1.99,-0.55,-0.19,9.60
1.75,0.16,1.99,-0.33,0.22,9.92
1.01,0.51,1.99,-0.09,0.32,10.19
0.40,0.80,2.05,-0.14,0.02,10.16
0.98,1.33,2.12,-0.23,-0.23,10.49
1.16,1.30,2.15,-0.43,0.09,10.70
1.02,1.02,2.16,-0.69,0.54,10.80
0.05,0.40,2.18,-0.51,0.59,10.89
-0.96,-0.23,2.26,-0.32,-0.02,10.20
-0.82,-0.37,2.33,-0.34,-0.17,9.93
-0.59,-0.48,2.38,-0.31,-0.06,9.89
-0.72,-0.58,2.42,-0.51,0.15,9.67
-0.89,-0.74,2.49,-0.17,-0.17,9.38
-0.65,-0.59,2.54,-0.15,-0.32,9.17
-0.18,-0.35,2.55,-0.31,-0.34,8.88
0.44,-0.16,2.55,-0.44,-0.29,8.81
1.22,0.09,2.59,-0.31,0.06,9.30
1.03,-0.02,2.61,-0.47,0.13,9.36
1.07,-0.22,2.64,-0.56,-0.01,9.16
1.59,-0.39,2.66,-0.45,-0.22,8.97
2.92,-0.10,2.60,-0.38,-0.10,9.21
3.17,0.07,2.60,-0.43,0.21,9.73
2.75,0.07,2.59,-0.52,0.37,10.30
2.04,-0.04,2.62,-0.47,0.33,10.67
0.95,-0.19,2.66,-0.40,0.04,10.91
0.71,-0.03,2.68,-0.30,0.06,11.01
0.56,0.11,2.80,-0.48,0.14,11.00
0.35,0.18,2.76,-0.44,0.20,10.94
-0.51,0.74,3.04,-0.03,0.26,10.93
-1.27,1.18,3.10,-0.14,0.12,10.66
-1.51,1.38,3.22,-0.12,-0.11,10.51
-1.18,1.59,3.31,-0.24,-0.13,10.33
-1.24,1.85,3.48,-0.22,0.04,9.88
-1.30,1.66,3.59,-0.28,-0.12,9.56
-0.99,1.57,3.68,-0.10,-0.28,9.40
-0.61,1.50,3.89,-0.29,-0.36,9.02
0.81,1.37,3.95,-0.26,-0.20,8.76
0.96,1.24,4.09,-0.38,-0.07,8.92
1.12,1.15,4.10,-0.44,0.13,9.04
1.02,0.99,4.31,-0.40,0.25,9.40
0.49,0.95,4.51,-0.75,0.23,9.69
0.39,0.71,4.70,-0.83,0.12,9.63
0.48,0.54,4.70,-0.59,0.02,9.76
0.64,0.82,4.80,-0.56,0.21,9.72
0.10,0.54,4.87,-0.84,0.32,9.86
0.02,0.40,5.03,-0.86,0.24,10.21
-0.18,0.19,5.07,-1.19,0.21,10.11
-0.36,-0.27,5.04,-1.07,0.25,10.20
-0.58,-1.06,5.24,-1.05,0.17,10.00
-0.40,-1.10,5.32,-0.67,0.22,9.85
-0.56,-0.84,5.46,-0.66,0.22,9.73
-0.84,-0.50,5.48,-0.79,0.09,9.66
-0.69,-0.14,5.62,-0.82,-0.12,10.23
-0.54,-0.25,5.71,-0.81,-0.01,10.07
-0.34,-0.11,5.86,-0.71,0.10,9.96
-0.54,0.25,5.91,-0.41,0.12,9.85
-0.53,1.59,6.07,-0.81,-0.08,9.98
-0.42,1.74,6.02,-0.86,-0.20,10.03
0.28,1.71,6.11,-0.72,-0.05,10.15
0.53,1.68,6.15,-0.58,0.19,10.11
0.10,2.34,6.27,-0.50,0.20,10.35
-0.12,2.21,6.29,-0.95,0.07,10.27
0.04,1.80,6.26,-1.19,0.04,10.42
0.32,1.29,6.23,-1.09,0.18,10.36
-0.50,0.41,6.24,-0.87,0.38,9.61
-0.65,0.07,6.25,-1.08,0.09,9.00
-0.07,-0.07,6.23,-0.79,-0.08,9.04
0.57,0.06,6.29,-0.87,0.17,9.09
0.21,-0.04,6.18,-1.23,0.36,8.86
-0.05,0.03,6.10,-1.02,0.07,9.07
0.30,0.33,6.03,-1.14,-0.06,8.94
0.83,0.43,6.05,-1.06,0.00,9.02
0.78,0.69,6.05,-1.02,0.33,9.35
0.38,0.75,5.99,-1.21,0.22,9.34
0.50,0.68,5.93,-1.21,0.07,9.57
0.76,0.51,5.91,-1.01,0.10,9.90
0.32,0.14,5.97,-1.07,0.51,9.97
-0.37,-0.05,5.94,-1.05,0.38,9.90
-0.59,-0.21,5.92,-1.01,0.17,9.97
-0.39,-0.26,5.96,-1.01,0.17,10.15
-0.83,-0.39,6.01,-1.02,0.38,10.43
-1.21,-0.55,6.03,-0.84,0.27,10.48
-1.36,-0.49,6.08,-0.79,0.01,10.45
-0.90,0.02,6.08,-0.82,-0.05,10.33
-0.74,0.25,6.16,-0.91,0.17,10.44
-1.03,0.24,6.12,-1.07,0.31,10.49
-1.54,0.05,6.08,-1.10,0.22,10.42
-1.63,-0.05,6.06,-0.88,-0.04,10.21
-0.73,0.29,6.11,-0.89,-0.02,9.46
-0.26,0.33,6.14,-0.96,0.29,9.32
-0.23,0.33,6.12,-0.88,0.37,9.51
-0.47,0.32,6.07,-1.06,0.24,9.49
-0.29,-0.20,5.88,-1.11,-0.08,9.45
0.40,-0.43,5.93,-1.01,0.06,9.42
0.60,-0.36,5.90,-0.94,0.26,9.48
0.20,-0.17,5.89,-0.91,0.41,9.56
-0.13,-0.10,5.85,-1.13,0.07,9.69
0.25,-0.19,5.82,-0.88,0.11,9.71
0.42,-0.05,5.84,-0.63,0.45,9.82
0.10,0.24,5.91,-0.71,0.72,9.69
-0.46,0.51,5.94,-0.83,0.63,9.66
-0.60,0.80,5.89,-1.00,0.09,9.71
-0.38,0.66,5.93,-0.91,0.14,9.64
-0.31,0.68,5.96,-0.74,0.32,9.59
-0.94,0.67,5.95,-0.70,0.24,9.42
-0.96,0.69,5.98,-0.88,-0.08,9.51
-0.71,0.30,6.00,-1.11,-0.09,9.37
-0.09,-0.14,6.00,-1.05,-0.02,9.53
0.16,-0.81,6.02,-1.07,0.39,9.48
-0.12,-0.99,5.99,-1.05,0.43,9.82
-0.67,-1.29,6.02,-0.94,0.18,9.97
-0.39,-1.40,6.08,-1.15,-0.03,9.65
0.32,-1.26,6.06,-1.02,0.01,9.39
1.14,-0.52,6.07,-0.85,0.45,9.57
0.82,-0.20,5.99,-1.01,0.35,10.03
0.60,-0.21,5.96,-1.20,0.09,10.22
1.35,-0.34,5.91,-1.03,0.05,10.15
1.25,-0.05,5.87,-1.02,0.26,10.19
1.15,-0.07,5.86,-1.09,0.41,10.25
0.94,-0.49,5.87,-1.09,0.44,10.46
0.62,-1.00,5.95,-0.84,0.52,10.20
0.30,-0.93,6.01,-0.71,0.45,10.23
-0.03,-0.68,6.00,-0.76,0.35,10.39
-0.39,-0.55,6.05,-1.17,0.29,10.31
-0.33,-0.99,5.97,-0.90,0.48,10.10
-0.66,-0.61,6.04,-0.63,0.56,9.94
-1.48,-0.12,6.04,-0.46,0.48,9.73
-2.04,0.25,6.10,-0.72,0.17,9.50
-1.15,0.50,6.14,-0.94,-0.33,9.23
-0.19,0.38,6.13,-0.99,-0.08,9.09
0.23,0.22,6.12,-0.83,0.24,9.13
0.11,0.27,6.09,-0.83,0.45,9.08
-0.40,0.10,6.01,-0.96,0.06,8.95
0.50,0.05,6.05,-0.84,-0.03,9.22
0.96,-0.23,6.12,-1.06,0.23,9.23
0.90,-0.88,6.06,-1.34,0.50,8.90
0.82,-1.53,6.01,-0.65,0.20,9.72
0.71,-1.21,6.04,-0.93,0.11,10.06
0.72,-1.25,6.08,-1.41,0.24,10.28
0.48,-1.59,6.00,-1.17,0.34,10.85
-0.40,-1.64,6.11,-1.21,0.44,10.99
-0.89,-1.66,6.07,-0.93,0.37,10.92
-1.21,-1.50,6.20,-0.63,0.20,10.85
-1.17,-0.94,6.26,-0.70,0.18,10.46
-0.89,-0.53,6.38,-1.20,0.45,10.41
-1.48,-0.89,6.36,-1.22,0.56,10.49
-2.08,-1.14,6.37,-0.93,0.38,10.28
-2.24,-1.07,6.46,-0.82,0.14,9.56
-1.40,-0.31,6.63,-0.52,-0.08,9.00
-0.93,0.29,6.67,-0.68,-0.05,9.22
-0.58,0.34,6.70,-1.12,0.15,9.33
-0.63,-0.28,6.70,-1.27,0.26,9.34
-0.31,-0.81,6.80,-0.68,0.07,9.13
-0.05,-0.44,6.83,-0.81,0.01,8.79
0.10,-0.12,6.83,-0.85,-0.04,8.82
0.73,0.15,6.82,-0.96,-0.08,9.05
2.10,-0.14,6.78,-1.21,0.57,9.67
1.72,-0.57,6.75,-1.09,0.84,9.76
0.90,-0.84,6.75,-0.87,0.63,9.64
0.38,-0.77,6.78,-0.79,0.11,9.56
1.67,-0.49,6.83,-1.36,0.02,9.83
1.80,-0.76,6.70,-1.53,0.52,10.29
0.92,-1.21,6.59,-1.31,0.79,10.57
-0.24,-1.54,6.56,-1.14,0.69,10.54
-0.88,-1.86,6.57,-0.92,-0.08,9.93
-0.22,-1.65,6.67,-0.67,0.08,10.15
-0.21,-1.22,6.69,-1.00,0.48,10.21
-0.89,-1.09,6.67,-1.31,0.67,10.15
-1.79,-1.06,6.63,-1.02,0.14,10.44
-1.57,-0.80,6.62,-0.96,-0.02,10.11
-1.19,-0.60,6.69,-0.88,0.04,9.87
-1.18,-0.40,6.67,-0.85,0.24,9.60
-1.37,0.11,6.65,-0.83,0.07,9.61
-1.05,0.04,6.66,-1.09,-0.08,9.45
-0.27,-0.46,6.68,-1.11,-0.09,9.34
0.05,-0.79,6.58,-0.87,0.15,9.25
0.47,-0.36,6.54,-1.19,0.21,8.92
0.85,-0.75,6.49,-1.28,0.19,9.01
1.25,-1.17,6.45,-1.00,0.19,9.43
1.47,-1.34,6.42,-0.91,0.25,9.49
1.16,-0.53,6.40,-0.74,0.33,10.39
0.80,-0.42,6.30,-1.36,0.23,10.53
0.98,-0.89,6.27,-1.43,0.24,10.83
0.65,-1.19,6.16,-0.91,0.53,10.40
0.18,-0.81,6.17,-0.69,0.47,10.07
-0.37,-0.50,6.16,-0.76,0.09,9.90
0.00,-0.31,6.12,-0.97,-0.16,9.92
0.90,-0.33,6.11,-1.03,0.15,9.94
0.06,-0.75,6.12,-0.86,0.98,9.83
-1.21,-0.65,6.11,-0.73,0.59,9.89
-1.70,-0.62,6.09,-0.83,0.01,9.82
-0.95,-0.74,6.16,-1.18,-0.16,9.58
-0.62,-1.02,6.06,-0.69,0.41,9.69
-1.00,-0.75,6.13,-0.82,0.55,9.56
-1.67,-0.84,6.02,-0.99,0.18,9.32
-1.42,-0.96,6.02,-0.77,-0.19,9.21
0.45,-0.93,6.04,-0.90,0.11,8.92
0.69,-0.88,6.07,-0.93,0.40,8.98
0.21,-0.89,5.97,-0.95,0.26,9.09
0.41,-0.83,5.89,-0.92,0.06,9.16
1.34,-0.90,5.87,-0.95,0.18,9.63
1.47,-0.98,5.84,-0.94,0.27,9.82
1.35,-1.36,5.86,-0.90,0.19,9.99
1.29,-1.56,5.81,-0.95,0.08,10.20
1.46,-1.14,5.75,-0.78,0.38,10.52
0.81,-1.12,5.75,-0.91,0.41,10.61
0.44,-0.94,5.68,-0.99,0.12,10.55
0.48,-0.76,5.56,-1.00,-0.14,10.62
1.26,-0.70,5.57,-0.83,0.71,11.05
0.05,-1.08,5.53,-0.98,0.86,11.06
-0.89,-1.29,5.51,-0.72,0.63,10.76
-1.37,-1.20,5.53,-0.60,0.25,10.46
-1.14,-0.51,5.55,-0.80,-0.17,9.86
-0.49,-0.59,5.49,-1.03,0.20,9.53
-0.57,-0.80,5.42,-0.79,0.50,9.34
-1.22,-0.71,5.39,-0.59,0.38,9.19
-1.34,-0.54,5.23,-0.52,-0.21,8.80
-0.80,-0.57,5.24,-0.58,-0.30,8.81
0.11,-0.57,5.29,-0.76,-0.01,8.70
0.75,-0.65,5.26,-0.81,0.37,9.00
-0.21,-0.93,5.08,-0.76,0.41,9.56
-0.20,-1.17,5.08,-1.07,0.13,9.54
-0.02,-1.60,4.95,-1.04,-0.10,9.46
0.20,-1.80,4.82,-0.57,-0.16,9.55
0.71,-1.54,4.88,-0.71,0.15,9.43
0.29,-1.58,4.93,-0.81,0.59,10.03
-0.61,-1.50,4.77,-0.93,0.35,10.37
-1.41,-1.61,4.56,-0.92,0.20,10.43
-0.91,-2.05,4.35,-1.06,-0.09,10.15
-0.77,-2.19,4.35,-0.70,0.18,10.46
-0.79,-1.87,4.32,-0.37,0.52,10.60
-1.80,-1.68,4.30,-0.33,0.52,10.46
-2.10,-0.77,4.10,-0.67,-0.17,10.33
-1.74,-0.58,3.96,-0.79,-0.09,10.47
-1.27,-0.89,3.91,-0.97,0.11,10.35
-1.64,-1.66,3.71,-0.97,0.22,9.91
-1.74,-1.65,3.61,-0.03,-0.03,9.46
-1.84,-1.39,3.55,-0.79,-0.09,9.07
-1.26,-1.77,3.45,-0.94,-0.15,9.32
-0.45,-2.35,3.35,-0.38,-0.12,9.92
-0.51,-2.50,3.22,-0.56,0.45,9.25
-0.80,-2.48,3.13,-0.28,0.21,9.15
-0.44,-2.05,3.10,-0.11,0.03,9.24
-0.16,-1.62,3.03,-0.33,-0.01,9.14
0.25,-1.29,2.86,-0.37,0.23,9.75
-0.15,-1.33,2.78,-0.48,0.32,9.80
-0.20,-1.23,2.64,-0.51,0.37,9.48
-0.38,-1.19,2.58,-0.34,0.20,9.34
-0.14,-0.69,2.32,-0.26,-0.12,9.52
0.03,-0.88,2.23,-0.81,-0.05,9.49
0.67,-1.35,2.03,-0.83,0.25,9.28
0.56,-1.94,1.90,-0.32,0.38,9.34
0.03,-1.65,1.67,-0.23,0.11,9.19
-0.14,-1.64,1.54,-0.05,-0.16,9.84
-0.01,-1.71,1.44,-0.43,-0.11,10.04
0.05,-1.92,1.34,-0.29,0.05,10.28
-1.05,-1.51,1.26,-0.18,0.17,10.36
-1.23,-1.28,1.13,-0.26,-0.08,10.08
-1.17,-1.16,1.02,-0.13,-0.26,10.16
-1.07,-0.90,0.90,0.04,-0.19,10.24
-1.25,-0.86,0.81,-0.19,0.13,10.09
-1.42,-1.45,0.77,-0.27,0.16,9.70
-1.24,-1.87,0.68,0.08,0.05,9.62
-0.99,-1.79,0.56,0.15,0.02,9.50
-0.67,-2.15,0.38,-0.38,-0.03,9.49
-0.55,-2.76,0.25,-0.19,-0.30,9.87
-0.29,-3.15,0.19,-0.10,-0.24,9.67
0.07,-3.29,0.17,0.01,-0.05,9.43
-0.20,-2.30,0.11,0.35,0.06,9.50
-0.36,-1.78,0.01,-0.06,-0.10,9.47
-0.02,-1.63,-0.18,-0.22,-0.27,9.72
0.48,-1.64,-0.37,-0.24,-0.08,10.13
-0.54,-1.87,-0.49,0.47,0.46,10.14
-1.22,-1.42,-0.53,0.36,0.09,9.81
-0.91,-0.93,-0.55,0.26,-0.32,9.62
0.09,-0.74,-0.60,0.29,-0.40,10.07
0.29,-1.45,-0.82,0.08,0.43,10.15
-0.72,-1.81,-0.84,0.39,0.28,10.13
-1.20,-1.79,-0.87,0.50,-0.29,9.75
-0.76,-1.48,-0.83,0.47,-0.65,9.50
0.86,-1.26,-0.86,0.27,-0.38,9.95
0.89,-1.42,-0.85,0.28,0.14,10.18
-0.08,-1.57,-0.93,0.30,0.31,10.03
-0.77,-1.60,-0.94,0.20,0.03,9.58
0.24,-1.98,-0.94,0.60,-0.53,9.30
1.22,-1.80,-0.89,0.54,-0.32,9.35
1.59,-1.78,-0.81,0.07,0.11,9.08
1.17,-2.10,-0.89,0.11,0.37,9.44
-0.09,-2.41,-0.98,-0.07,0.04,9.72
-0.19,-3.03,-1.02,-0.13,-0.39,9.59
0.33,-3.57,-1.04,0.24,-0.54,9.51
1.07,-3.56,-0.98,0.39,-0.26,9.41
0.34,-2.71,-0.94,0.45,0.17,9.97
-0.54,-2.36,-0.91,0.18,-0.05,10.07
-0.71,-2.26,-0.93,0.15,-0.52,10.01
0.11,-2.11,-0.99,0.07,-0.65,9.80
1.23,-1.80,-0.95,0.88,0.30,10.00
0.28,-1.33,-0.93,0.93,0.54,10.08
-0.65,-0.91,-0.78,0.51,0.05,9.79
-0.83,-0.84,-0.83,0.39,-0.70,9.99
0.90,-0.85,-0.90,0.19,-0.24,10.63
0.31,-1.46,-1.01,0.05,0.17,10.74
-0.61,-1.96,-0.96,0.54,0.14,10.80
-1.35,-1.96,-0.88,0.90,-0.21,10.60
-0.77,-1.47,-0.81,0.48,-0.72,9.90
-0.19,-1.54,-0.84,0.23,-0.52,9.96
-0.18,-1.84,-0.99,0.13,-0.20,9.98
-0.52,-2.18,-1.07,0.27,-0.08,9.86
-0.28,-2.10,-0.98,0.71,-0.49,9.45
0.32,-1.66,-0.91,0.64,-0.39,9.27
0.71,-1.11,-0.97,0.66,-0.00,9.30
0.34,-0.71,-0.98,0.24,0.29,9.31
-0.52,-0.96,-1.26,0.53,-0.33,9.37
0.05,-1.02,-1.25,0.43,-0.69,9.12
1.04,-1.00,-1.31,0.55,-0.61,9.05
1.56,-0.92,-1.30,0.64,-0.20,9.53
0.42,-1.23,-1.42,0.14,0.05,9.94
-0.05,-1.66,-1.48,0.22,-0.23,10.17
-0.07,-1.77,-1.65,0.74,-0.36,10.30
-0.02,-1.53,-1.55,0.85,-0.21,10.18
-0.53,-0.89,-1.77,0.54,-0.10,10.21
-0.65,-0.72,-1.69,0.49,-0.03,10.61
-1.03,-0.97,-1.76,0.18,-0.07,10.45
-1.37,-1.28,-1.94,0.31,-0.04,10.21
-1.46,-1.39,-1.87,0.67,-0.05,10.03
-1.72,-0.81,-2.12,0.65,-0.22,9.44
-1.49,-0.57,-2.14,0.48,-0.32,9.77
-1.59,-0.67,-2.31,0.41,-0.33,9.98
-1.76,-1.82,-2.35,0.47,-0.38,9.51
-1.57,-1.75,-2.59,0.96,-0.52,9.18
-1.10,-1.22,-2.55,0.85,-0.59,9.01
-0.68,-0.68,-2.75,0.34,-0.44,9.12
-1.16,-0.87,-3.09,0.35,-0.01,10.23
-1.44,-1.68,-3.24,0.25,-0.21,9.90
-1.26,-2.29,-3.36,0.83,-0.47,9.56
-0.34,-2.11,-3.30,0.74,-0.60,9.07
0.45,-1.56,-3.58,0.70,-0.42,8.66
0.42,-0.17,-3.94,0.74,0.20,9.45
-0.26,0.13,-4.20,0.84,0.02,9.94
-0.58,-0.03,-4.27,0.82,-0.31,10.46
0.17,-0.99,-4.59,0.90,-0.39,10.54
-0.16,-1.02,-4.66,0.94,-0.01,10.44
-0.93,-0.75,-4.83,0.70,0.04,10.19
-1.37,-0.65,-5.18,0.86,-0.15,10.14
-1.57,-0.84,-5.26,1.20,-0.40,10.19
-1.68,-0.57,-5.43,1.28,-0.30,9.95
-1.97,-0.49,-5.46,1.07,-0.32,9.61
-1.81,-0.53,-5.67,0.96,-0.40,9.29
-1.44,-0.49,-5.94,1.17,-0.34,9.27
-1.46,-0.76,-6.23,1.01,-0.25,8.97
-1.15,-1.09,-6.46,1.40,-0.32,9.21
-1.09,-1.26,-6.47,1.27,-0.35,9.23
-0.49,-1.65,-6.99,0.96,-0.41,9.09
-0.12,-1.75,-7.06,1.14,-0.29,9.45
-0.12,-1.66,-7.31,1.18,-0.12,9.58
-0.66,-1.68,-7.49,1.25,-0.18,9.61
-0.18,-1.42,-7.87,1.37,-0.71,9.45
0.59,-1.06,-8.00,1.36,-0.36,9.71
0.64,-0.80,-8.18,1.01,0.06,9.84
-0.27,-0.97,-8.55,1.13,0.15,10.16
-1.49,-1.29,-8.76,1.12,-0.55,10.40
-1.15,-1.55,-9.04,1.37,-0.73,10.17
-0.59,-1.73,-9.03,1.51,-0.52,10.12
-0.44,-1.47,-9.17,1.64,-0.15,10.10
-2.15,-0.87,-9.34,1.60,-0.21,10.07
-2.46,-0.84,-9.58,1.37,-0.80,9.71
-1.67,-1.07,-9.83,1.44,-1.02,9.46
-0.51,-1.39,-9.83,1.59,-0.80,9.50
-0.40,-1.81,-10.15,1.64,-0.02,9.26
-0.67,-2.02,-10.15,1.78,-0.09,9.27
-1.05,-1.92,-10.38,2.03,-0.40,9.29
-0.79,-1.64,-10.44,1.83,-0.57,9.22
0.22,-1.74,-10.71,2.06,-0.50,9.77
0.41,-1.70,-10.65,1.90,-0.18,10.03
0.24,-1.85,-10.71,1.46,-0.12,9.69
0.06,-2.17,-10.93,1.87,-0.31,9.71
0.54,-1.70,-10.98,1.94,-0.41,9.58
0.41,-1.50,-11.06,2.04,-0.34,9.56
0.61,-1.18,-11.04,2.11,-0.28,9.81
0.44,-0.79,-11.11,2.27,-0.16,9.79
0.14,-0.28,-11.16,1.94,-0.33,9.72
-0.04,-0.02,-11.30,2.27,-0.44,9.69
0.21,0.27,-11.28,2.19,-0.45,9.66
0.28,0.27,-11.28,1.92,-0.39,9.54
0.63,-0.12,-11.33,2.37,-0.35,9.94
0.54,-0.13,-11.33,2.21,-0.29,9.80
0.42,-0.23,-11.31,2.00,-0.32,9.73
0.07,-0.38,-11.34,2.18,-0.42,10.05
-0.09,-0.09,-11.34,2.10,-0.19,10.23
-0.52,-0.36,-11.32,2.04,-0.28,10.09
-0.45,-0.39,-11.31,2.41,-0.41,10.14
-0.36,-0.11,-11.18,2.43,-0.41,9.90
-0.22,0.41,-11.27,2.11,-0.25,9.36
-0.21,0.39,-11.29,2.18,-0.20,9.50
-0.52,0.30,-11.34,2.05,-0.15,9.74
-0.87,-0.05,-11.30,2.01,-0.25,9.77
-0.47,-0.91,-11.25,1.84,-0.65,9.68
-0.16,-1.08,-11.31,1.80,-0.56,9.49
0.30,-1.21,-11.37,2.04,-0.29,9.59
0.34,-1.13,-11.34,2.18,-0.08,9.73
-0.52,-0.58,-11.34,2.08,-0.43,9.63
-0.21,-0.23,-11.38,2.26,-0.59,9.90
0.31,0.15,-11.36,1.98,-0.43,10.03
0.14,0.18,-11.41,1.73,-0.23,10.07
-0.20,0.19,-11.41,2.12,-0.31,10.34
-0.33,0.43,-11.43,2.15,-0.43,10.14
-0.49,0.71,-11.49,2.23,-0.47,10.12
-0.20,1.11,-11.47,2.26,-0.37,10.10
-0.81,1.35,-11.47,2.15,-0.11,10.41
-1.16,1.31,-11.50,2.03,-0.20,10.40
-1.50,0.82,-11.52,2.14,-0.30,10.37
-1.49,0.31,-11.43,1.95,-0.42,10.14
-1.24,-0.27,-11.60,2.13,-0.33,9.57
-1.21,-0.32,-11.60,2.11,-0.28,9.36
-1.53,-0.40,-11.73,2.28,-0.31,9.16
-1.57,-0.31,-11.72,2.29,-0.48,9.08
-0.60,-0.10,-11.89,2.24,-0.50,8.98
-0.19,-0.10,-11.88,1.94,-0.31,9.09
-0.43,-0.37,-12.14,1.74,-0.27,8.96
-0.46,-0.72,-12.29,1.92,-0.35,9.04
0.19,-1.01,-12.54,2.10,-0.67,8.85
0.71,-0.69,-12.63,2.42,-0.52,9.22
0.60,-0.07,-12.63,2.28,-0.30,9.45
0.09,0.35,-12.84,2.03,-0.11,9.62
-0.16,0.19,-13.06,1.95,-0.50,10.45
0.03,-0.07,-13.26,2.20,-0.62,10.50
0.45,-0.37,-13.23,1.94,-0.51,10.24
0.81,-0.43,-13.36,2.11,-0.40,10.02
0.59,0.02,-13.49,2.24,-0.11,9.96
0.11,0.37,-13.73,2.31,-0.20,10.26
-0.41,0.26,-13.85,2.34,-0.28,10.57
-0.29,-0.20,-13.78,1.99,-0.39,10.54
-0.19,-1.44,-13.94,2.29,-0.32,10.23
-0.32,-1.40,-13.93,2.44,-0.29,10.02
-0.70,-1.22,-14.08,2.56,-0.30,9.59
-0.65,-0.97,-14.06,2.41,-0.33,9.26
-0.53,-0.56,-14.09,2.56,-0.36,9.36
-0.92,0.18,-14.16,2.46,-0.32,9.44
-0.84,0.02,-14.21,2.28,-0.55,9.19
-0.21,-0.21,-14.27,2.55,-0.72,9.26
1.16,0.02,-14.36,2.52,-0.16,9.17
0.84,0.08,-14.43,2.63,0.11,9.26
0.33,0.13,-14.44,2.54,-0.03,9.21
0.30,0.20,-14.51,2.50,-0.36,9.10
1.56,0.32,-14.52,2.69,-0.45,9.53
1.43,0.52,-14.46,2.64,-0.17,9.79
1.07,0.53,-14.44,2.37,-0.14,9.81
0.95,0.38,-14.54,2.37,-0.33,9.88
1.30,0.36,-14.60,2.51,-0.25,10.32
0.88,0.22,-14.54,2.54,-0.04,10.60
0.35,0.08,-14.49,2.43,-0.08,10.69
-0.12,-0.16,-14.45,2.48,-0.33,10.59
0.01,-0.09,-14.31,2.60,-0.25,10.70
-0.27,0.06,-14.27,2.48,0.02,10.58
-0.90,-0.17,-14.20,2.35,0.01,10.36
-1.48,-0.39,-14.22,2.45,-0.27,10.19
-1.12,-0.55,-14.09,2.55,-0.64,9.80
-0.57,-0.85,-14.00,2.22,-0.48,9.48
0.05,-1.19,-13.95,2.39,-0.26,9.39
0.13,-1.34,-13.98,2.60,-0.09,9.27
0.04,-1.16,-13.94,2.50,-0.05,8.99
0.11,-0.55,-14.04,2.57,-0.45,8.83
0.77,-0.42,-14.05,2.47,-0.57,8.71
1.32,-0.27,-14.06,2.69,-0.54,9.14
1.00,0.41,-14.07,2.31,-0.16,9.89
0.81,0.18,-14.12,2.11,-0.30,10.05
1.25,-0.19,-14.14,2.27,-0.56,10.09
2.00,-0.21,-14.14,2.42,-0.46,9.96
1.39,0.61,-14.19,2.87,-0.04,9.99
0.78,1.36,-14.22,2.78,-0.19,9.90
0.65,1.79,-14.19,2.51,-0.39,9.85
1.06,1.79,-14.17,2.55,-0.43,10.24
1.06,1.23,-14.13,2.27,0.14,10.85
0.51,0.53,-14.11,1.93,0.28,10.45
0.18,-0.39,-14.16,2.12,-0.05,10.02
0.62,-0.71,-14.19,2.61,-0.19,9.93
-0.09,-0.12,-14.00,2.82,0.54,9.85
-1.40,-0.06,-13.91,2.72,0.38,10.01
-2.18,0.19,-13.86,2.70,-0.08,10.16
-2.24,0.35,-13.81,2.36,-0.44,9.91
-1.52,-0.18,-13.81,2.29,-0.30,9.71
-1.63,-0.42,-13.76,2.47,-0.13,9.34
-1.97,-0.40,-13.68,2.69,-0.19,9.11
-2.23,0.13,-13.64,2.76,-0.30,8.84
-2.14,1.21,-13.65,2.73,-0.34,9.12
-1.73,1.40,-13.69,2.34,-0.01,9.52
-1.71,0.96,-13.67,1.93,0.17,9.90
-2.03,0.06,-13.74,1.99,0.04,10.37
-2.11,-1.01,-13.77,2.20,-0.32,10.02
-1.69,-1.25,-13.76,2.19,-0.58,9.52
-1.00,-0.96,-13.83,2.56,-0.57,9.54
-0.61,-0.10,-13.91,2.79,-0.16,9.87
-2.27,0.61,-13.96,2.11,-0.01,10.47
-2.59,0.30,-14.02,2.02,-0.56,10.73
-1.93,-0.21,-14.04,2.06,-0.91,10.78
-0.93,-0.67,-14.10,2.16,-0.68,10.59
-0.37,-0.94,-14.06,2.27,0.14,9.95
-0.88,-0.77,-14.08,2.61,0.13,9.64
-1.22,-0.19,-14.04,2.90,-0.10,9.76
-1.31,0.52,-14.00,2.69,-0.16,9.70
-1.17,0.31,-13.91,2.35,-0.16,9.88
-1.08,-0.02,-13.86,2.41,-0.11,9.91
-1.22,-0.39,-13.80,2.40,-0.15,9.54
-1.14,-0.73,-13.77,2.46,-0.42,9.15
-0.37,-0.03,-13.72,2.87,-0.64,8.53
0.19,0.64,-13.68,2.89,-0.47,8.37
0.66,1.17,-13.69,2.59,-0.24,8.34
0.60,1.44,-13.73,2.57,-0.12,8.44
0.73,1.40,-13.70,2.46,-0.03,8.82
0.84,1.14,-13.66,2.30,-0.09,8.84
0.89,0.86,-13.60,2.51,-0.17,9.07
0.98,1.05,-13.65,2.68,-0.09,9.35
0.25,1.38,-13.66,2.26,0.32,9.59
-0.52,1.50,-13.71,2.62,0.19,10.33
-1.03,1.71,-13.56,2.44,0.17,10.52
-1.86,1.43,-13.56,2.18,-0.24,10.36
-1.20,0.52,-13.45,2.15,-0.65,10.34
-0.74,0.37,-13.52,1.98,-0.29,10.16
-0.98,-0.15,-13.45,2.27,-0.04,10.29
-1.57,-0.33,-13.40,2.31,-0.06,10.35
-1.53,-0.53,-13.27,2.37,-0.55,9.95
-0.98,-0.52,-13.30,2.31,-0.57,9.84
-0.33,-0.38,-13.20,2.34,-0.29,9.76
0.05,-0.52,-13.10,2.28,0.00,9.73
0.01,-0.65,-13.11,2.40,0.16,9.72
-0.65,-0.25,-12.92,2.54,-0.50,9.39
0.07,0.22,-12.88,2.45,-0.65,9.28
0.61,0.59,-12.83,2.29,-0.50,9.59
0.23,0.81,-12.75,2.32,0.13,10.46
-0.53,0.74,-12.66,2.26,0.11,10.61
-1.20,0.78,-12.64,2.63,-0.13,10.62
-1.16,1.50,-12.43,2.40,-0.39,9.73
-0.80,1.96,-12.38,2.54,-0.13,9.73
-1.17,2.48,-12.34,2.50,0.17,9.96
-2.04,2.72,-12.34,2.27,0.28,9.80
-2.43,2.35,-12.24,2.22,-0.00,9.73
-1.93,1.95,-12.02,2.43,-0.37,9.58
-1.65,1.87,-11.93,2.33,-0.24,9.33
-1.87,1.71,-11.93,2.19,-0.23,8.97
-1.76,1.60,-11.93,2.20,-0.38,8.61
-0.67,1.61,-11.85,2.46,-0.58,8.30
-0.28,1.82,-11.74,2.59,-0.49,8.37
-0.15,2.17,-11.69,2.38,-0.40,8.45
-0.19,2.65,-11.60,2.10,-0.27,9.54
-0.00,2.29,-11.66,1.69,-0.10,9.94
0.03,1.24,-11.60,1.49,-0.17,10.33
0.13,0.31,-11.64,1.72,-0.21,10.60
0.27,-0.14,-11.52,2.00,-0.09,10.60
-0.24,-0.28,-11.38,2.03,-0.07,9.89
-0.05,0.22,-11.32,2.08,-0.03,10.07
-0.40,0.73,-11.36,1.94,0.12,10.33
-1.32,0.81,-11.31,1.81,0.12,10.70
-2.23,-0.01,-11.27,1.41,-0.56,10.73
-1.68,-0.74,-11.22,1.37,-0.61,10.34
-1.10,-1.08,-11.20,1.73,-0.40,10.18
-1.16,-0.85,-11.12,2.04,-0.03,10.04
-2.30,-0.26,-11.09,1.98,-0.33,9.08
-1.64,0.00,-10.95,2.03,-0.79,8.72
-0.26,0.62,-10.95,2.05,-0.86,8.45
0.83,1.19,-11.00,2.18,-0.43,8.46
0.79,2.05,-10.83,2.26,0.07,8.59
0.74,2.21,-10.73,2.27,-0.28,8.63
1.18,2.62,-10.75,2.47,-0.52,8.97
1.56,3.28,-10.69,2.55,-0.34,9.46
0.80,3.32,-10.67,1.67,0.06,9.64
0.67,2.76,-10.57,2.04,-0.16,10.13
0.54,2.72,-10.52,2.49,-0.23,10.52
0.20,2.85,-10.37,2.37,-0.06,10.43
-0.78,2.35,-10.25,2.02,0.05,10.35
-1.02,2.24,-10.20,2.07,-0.04,10.52
-1.30,2.14,-10.17,1.93,-0.05,10.54
-1.52,2.03,-10.09,1.80,0.02,10.55
-2.19,1.25,-9.82,1.96,-0.34,10.13
-1.73,1.28,-9.72,1.98,-0.53,9.76
-1.43,1.64,-9.68,1.96,-0.43,9.42
-1.30,2.15,-9.65,2.13,-0.21,9.32
-1.76,2.96,-9.59,1.64,-0.43,9.07
-1.40,2.90,-9.53,1.78,-0.66,9.15
-0.70,2.90,-9.39,1.85,-0.64,9.43
-0.15,3.09,-9.30,1.71,-0.25,9.59
-1.16,2.78,-9.27,1.51,-0.09,9.75
-1.11,2.83,-9.23,1.74,-0.36,9.81
-0.45,3.15,-9.12,1.61,-0.33,9.75
-0.35,3.28,-9.07,1.73,-0.13,9.88
-0.80,3.22,-8.67,1.60,-0.10,9.98
-0.96,3.05,-8.62,1.52,-0.23,9.91
-0.97,2.93,-8.50,1.68,-0.40,10.10
-0.72,2.89,-8.32,1.65,-0.36,10.04
-0.71,2.44,-7.92,1.69,-0.10,9.89
-1.03,2.40,-7.74,1.74,-0.17,9.80
-1.19,2.57,-7.56,1.71,-0.29,9.66
-1.01,2.75,-7.35,1.69,-0.41,9.55
-0.32,3.27,-6.99,1.78,-0.33,9.37
0.05,3.68,-6.70,1.81,-0.14,9.29
-0.06,4.12,-6.53,1.64,0.03,9.17
-0.37,4.63,-6.41,1.51,-0.02,9.14
-0.51,5.47,-6.06,1.50,-0.45,9.44
-0.23,5.47,-5.88,1.16,-0.35,9.45
-0.20,5.13,-5.70,1.39,-0.18,9.93
-0.38,4.89,-5.46,1.33,0.04,10.23
-1.57,4.12,-5.09,0.98,-0.31,9.74
-1.33,3.97,-4.93,1.23,-0.71,9.76
-0.51,4.10,-4.69,1.23,-0.61,9.72
-0.11,4.00,-4.47,1.09,-0.13,9.67
-1.02,3.65,-4.01,0.80,0.19,9.77
-1.42,3.44,-3.82,0.68,-0.17,9.64
-1.31,3.12,-3.69,0.80,-0.53,9.62
-0.57,3.10,-3.44,0.87,-0.57,9.57
0.01,3.33,-2.87,1.06,-0.10,9.36
0.01,3.84,-2.55,0.90,0.00,9.39
-0.41,4.30,-2.33,0.74,-0.20,9.37
-0.33,4.57,-2.17,0.68,-0.45,9.60
0.34,3.64,-1.75,0.21,-0.19,10.03
-0.09,2.87,-1.52,0.66,-0.07,10.46
-0.44,2.52,-1.16,0.49,-0.01,10.19
-0.72,2.30,-0.90,0.36,-0.02,9.73
-0.71,2.33,-0.44,0.45,-0.25,9.76
-0.66,2.55,-0.29,0.29,-0.07,9.90
-1.15,2.41,-0.04,0.21,0.03,10.13
-1.68,2.25,0.10,0.30,-0.15,10.26
-1.36,2.18,0.62,0.26,-0.30,9.75
-1.19,2.37,0.85,0.18,-0.18,9.51
-1.34,2.76,1.03,0.29,-0.24,9.46
-1.38,3.10,1.23,0.20,-0.44,9.48
-0.70,2.92,1.36,-0.22,-0.48,9.35
-0.35,2.72,1.48,-0.01,-0.29,9.30
-0.30,2.74,1.64,0.04,-0.09,9.21
-0.61,2.74,1.84,-0.04,-0.18,9.44
-0.31,2.54,2.07,-0.10,-0.58,9.82
0.27,2.33,2.21,-0.32,-0.42,9.76
0.50,2.11,2.25,-0.42,-0.10,9.57
0.51,1.92,2.30,-0.17,-0.03,9.57
0.07,2.15,2.45,-0.10,-0.36,9.60
0.34,2.10,2.64,-0.21,-0.70,9.67
1.10,1.92,2.71,-0.08,-0.69,9.90
1.68,2.08,2.87,-0.13,-0.28,10.19
0.54,2.06,2.88,-0.22,0.06,10.60
0.08,2.00,3.02,-0.48,-0.09,10.70
-0.16,1.46,3.09,-1.00,-0.45,10.11
0.46,0.65,3.04,-0.63,-0.55,9.82
0.67,0.58,3.35,-0.12,0.23,9.57
-0.25,0.57,3.44,-0.39,0.08,9.46
-0.59,0.35,3.49,-0.75,-0.31,9.37
-0.04,0.27,3.48,-0.70,-0.46,9.29
0.31,0.36,3.67,-0.69,0.06,9.45
-0.32,0.36,3.72,-0.42,0.13,9.47
-0.89,0.47,3.94,-0.16,-0.21,9.74
-0.97,1.11,4.01,-0.44,-0.52,9.51
-0.15,1.77,4.31,-0.59,-0.24,9.93
-0.39,1.98,4.24,-0.94,0.05,9.97
-0.92,1.60,4.32,-0.75,0.07,9.99
-1.29,1.28,4.45,-0.56,-0.21,9.89
-0.63,1.49,4.90,-0.25,-0.47,9.29
0.02,1.65,5.04,-0.55,-0.48,9.26
0.24,1.56,5.08,-0.49,-0.26,9.37
0.40,1.59,5.29,-0.60,-0.10,9.82
-0.10,1.32,5.56,-0.59,-0.08,10.37
-0.28,0.79,5.88,-0.67,-0.31,10.15
-0.25,0.81,5.97,-0.17,-0.48,9.99
0.14,1.60,6.34,0.10,-0.38,10.21
0.19,2.23,6.67,-0.67,-0.18,10.26
-0.74,1.85,6.87,-0.73,-0.04,10.96
-1.32,1.58,7.14,-0.91,-0.35,10.49
-1.02,1.41,7.24,-0.49,-0.52,10.10
-0.22,1.87,7.94,-0.88,-0.15,9.69
-0.26,1.69,8.05,-0.88,0.03,9.81
-0.71,1.13,8.39,-1.18,-0.06,9.62
-0.76,0.79,8.52,-1.18,-0.43,9.21
0.30,1.11,9.00,-1.01,-0.46,9.08
0.66,1.19,9.13,-1.16,-0.23,9.03
0.55,1.10,9.37,-0.98,0.03,9.33
0.22,1.27,9.69,-1.19,-0.02,9.57
-0.18,1.04,9.90,-1.42,-0.57,9.28
0.52,1.13,10.13,-1.29,-0.68,9.28
1.13,1.58,10.19,-1.06,-0.29,9.24
1.24,1.95,10.52,-1.19,0.15,9.40
0.17,1.87,10.72,-1.28,-0.08,9.59
0.33,1.68,11.07,-1.47,-0.48,9.39
0.88,1.76,11.17,-1.54,-0.73,9.22
1.61,2.01,11.18,-1.09,-0.46,9.47
1.30,2.04,11.67,-1.56,0.29,9.98
0.15,1.76,11.73,-1.44,0.16,10.25
-0.27,1.56,12.04,-1.50,-0.36,10.35
0.13,1.33,12.11,-1.74,-0.68,10.15
0.91,0.88,12.23,-1.74,-0.43,10.24
0.03,0.20,12.49,-1.49,0.13,10.16
-0.52,0.44,12.68,-1.20,0.08,9.87
-0.85,0.97,13.00,-1.53,-0.29,9.59
0.13,1.50,13.09,-1.73,-0.37,10.13
0.24,1.43,13.28,-1.99,-0.07,10.26
-0.37,1.23,13.25,-1.84,0.02,10.11
-0.92,1.16,13.44,-1.80,-0.01,10.15
-0.68,0.89,13.54,-1.97,-0.40,9.66
-0.53,0.81,13.75,-1.92,-0.32,9.91
-0.69,0.89,13.75,-2.03,-0.21,9.91
-0.92,0.81,13.74,-2.08,-0.18,10.01
-1.00,0.56,13.83,-2.23,-0.30,10.04
-0.64,0.24,13.83,-1.88,-0.18,9.50
-0.57,0.50,13.91,-1.86,-0.17,9.47
-0.72,0.76,13.92,-1.89,-0.30,9.50
-0.17,0.63,14.07,-2.16,-0.25,9.78
-0.16,0.64,14.03,-2.09,-0.06,9.74
-0.48,0.85,14.02,-1.87,0.07,9.83
-0.91,1.08,13.99,-1.95,0.06,10.00
-1.30,0.46,13.85,-2.34,-0.48,10.05
-0.95,0.12,13.91,-2.05,-0.41,10.15
-0.84,-0.03,13.92,-1.88,-0.09,10.09
-1.36,-0.13,13.91,-1.91,0.17,9.97
-2.43,-0.18,13.76,-2.19,-0.30,9.82
-2.18,-0.42,13.75,-2.34,-0.51,9.59
-1.71,-0.67,13.68,-2.22,-0.50,9.60
-1.53,-0.83,13.57,-2.11,-0.21,9.45
-1.57,-0.94,13.56,-1.91,-0.08,8.98
-1.65,-0.65,13.55,-1.85,-0.46,9.09
-1.06,-0.25,13.49,-2.04,-0.77,9.20
-0.21,-0.13,13.38,-2.37,-0.61,9.31
0.14,-0.71,13.20,-2.14,-0.01,9.38
-0.13,-0.51,13.12,-1.78,-0.02,9.54
-0.28,-0.19,13.12,-1.88,-0.27,9.53
-0.23,-0.25,13.08,-2.16,-0.54,9.60
0.82,-0.63,12.89,-2.14,-0.20,9.72
0.51,-0.47,12.78,-1.85,0.13,9.76
0.01,-0.28,12.80,-1.92,0.05,9.83
-0.20,-0.42,12.73,-1.92,-0.34,9.85
0.69,-0.37,12.75,-1.88,-0.33,9.90
0.65,-0.23,12.67,-1.75,-0.03,9.91
0.41,-0.08,12.69,-1.78,0.12,10.25
-0.32,-0.17,12.58,-1.90,-0.10,10.41
-0.03,-0.58,12.61,-1.73,-0.68,9.83
0.80,-0.55,12.60,-1.49,-0.42,9.56
0.82,-0.18,12.63,-1.50,-0.06,9.54
0.35,0.06,12.63,-1.60,-0.05,9.69
0.64,-0.41,12.68,-1.91,-0.42,9.75
0.76,-0.56,12.65,-1.58,-0.35,9.54
0.96,-0.19,12.69,-1.36,-0.16,9.34
1.03,0.34,12.71,-1.63,0.03,9.24
0.20,0.25,12.61,-1.83,-0.33,9.80
0.66,-0.04,12.68,-1.86,-0.44,9.82
1.10,-0.32,12.67,-1.98,-0.09,9.55
0.74,-0.45,12.59,-1.72,0.22,9.48
-0.76,-0.18,12.62,-1.98,-0.23,10.01
-0.71,-0.49,12.53,-2.39,-0.71,10.15
-0.00,-1.35,12.42,-2.29,-0.63,10.12
0.48,-1.80,12.42,-2.12,-0.07,9.91
-0.69,-1.54,12.39,-1.59,0.14,9.80
-1.10,-1.35,12.39,-2.09,-0.37,9.74
-0.58,-1.69,12.36,-2.21,-0.83,9.57
0.49,-1.91,12.44,-1.85,-0.80,9.53
1.05,-0.77,12.38,-1.52,0.15,9.53
0.58,-0.28,12.40,-1.60,0.12,10.06
0.17,-0.06,12.40,-1.82,-0.23,10.41
0.16,-0.01,12.43,-1.65,-0.46,10.35
0.42,0.80,12.45,-1.45,-0.04,10.14
0.02,1.17,12.43,-1.55,-0.01,10.42
-0.60,1.02,12.36,-1.72,-0.13,10.64
-0.76,0.38,12.38,-1.71,-0.08,10.69
-1.23,0.19,12.37,-1.52,-0.08,10.63
-1.79,0.20,12.40,-1.57,-0.16,10.37
-1.92,0.21,12.36,-1.61,-0.32,10.02
-1.55,0.32,12.37,-1.61,-0.39,9.79
-1.05,0.60,12.38,-1.57,-0.06,9.45
-1.43,0.67,12.39,-1.58,-0.16,9.18
-1.29,0.76,12.33,-1.65,-0.45,9.01
-0.85,0.81,12.34,-1.81,-0.65,9.00
0.15,0.02,12.28,-2.02,-0.24,9.17
0.25,-0.53,12.27,-2.02,-0.09,9.07
0.13,-0.92,12.29,-1.97,-0.18,8.84
0.08,-1.02,12.26,-1.77,-0.30,8.81
0.80,-0.79,12.24,-1.90,-0.50,9.28
1.33,-1.02,12.22,-2.21,-0.39,9.72
1.52,-1.63,12.20,-2.27,-0.20,10.00
1.44,-2.08,12.15,-1.95,0.07,10.14
0.13,-1.64,12.16,-1.85,0.05,10.12
-0.45,-1.53,12.00,-2.06,-0.38,10.14
-0.12,-1.30,11.87,-1.65,-0.61,10.64
0.41,-1.06,11.98,-1.84,-0.41,10.75
-0.17,-1.40,11.86,-1.67,0.31,10.74
-1.10,-1.21,11.84,-1.53,0.10,10.25
-1.69,-0.65,11.80,-1.33,-0.29,9.64
-1.27,0.14,11.78,-1.40,-0.73,9.47
0.37,0.75,11.70,-1.66,-0.29,9.48
0.45,0.79,11.66,-1.51,0.34,9.44
-0.53,0.96,11.62,-1.25,0.33,9.42
-1.26,1.31,11.53,-1.31,-0.21,9.33
-1.15,1.50,11.49,-1.41,-0.75,9.29
0.49,1.38,11.30,-1.71,-0.33,9.75
0.25,0.96,11.18,-1.67,0.03,9.89
-0.50,0.54,11.07,-1.70,0.08,9.83
-0.23,0.00,10.89,-1.66,-0.52,9.67
0.24,-0.35,10.85,-1.58,-0.49,9.57
0.72,-0.44,10.80,-1.71,-0.17,9.53
0.59,-0.48,10.62,-1.73,0.10,9.60
-0.25,-0.88,10.35,-1.90,-0.29,9.82
0.05,-1.36,10.18,-1.93,-0.40,9.78
0.51,-1.57,10.08,-1.75,-0.27,9.77
0.43,-1.61,9.97,-1.63,-0.11,9.85
0.13,-1.54,9.86,-1.76,-0.02,10.07
-0.52,-2.14,9.52,-1.82,-0.33,10.58
-0.60,-2.33,9.45,-1.69,-0.26,10.32
-0.54,-2.12,9.33,-1.46,-0.13,10.10
-1.10,-1.31,9.00,-1.34,-0.18,10.26
-1.20,-1.24,8.89,-1.64,-0.30,10.22
-1.32,-1.35,8.70,-1.49,-0.34,10.14
-1.20,-1.09,8.56,-1.31,-0.26,9.95
-1.01,-0.59,8.21,-1.15,-0.29,9.25
-0.86,-0.19,8.04,-1.24,-0.37,9.44
-0.58,-0.04,7.84,-1.36,-0.37,9.49
-0.28,-0.33,7.66,-1.28,-0.32,9.66
-0.31,-0.66,7.51,-1.21,-0.24,9.56
-0.22,-0.27,7.12,-1.10,-0.36,9.18
0.10,-0.15,6.91,-1.29,-0.45,9.07
0.53,-0.36,6.63,-1.25,-0.42,9.18
0.88,-1.30,6.20,-1.45,-0.09,9.61
0.51,-2.07,5.97,-1.28,-0.26,9.93
0.32,-2.55,5.68,-1.16,-0.41,10.39
0.64,-2.66,5.54,-1.18,-0.21,10.23
0.17,-2.61,5.26,-0.97,0.26,9.93
-0.61,-2.03,5.04,-0.83,-0.04,9.85
-0.72,-1.67,4.83,-0.88,-0.52,9.82
-0.13,-1.42,4.60,-1.07,-0.74,9.66
0.90,-0.95,4.24,-0.58,-0.04,9.68
0.52,-0.60,4.07,-0.51,0.31,9.79
-0.56,-0.43,3.90,-0.52,0.09,9.89
-1.06,-0.33,3.71,-0.81,-0.53,9.86
0.42,-0.69,3.30,-0.73,-0.48,9.70
0.83,-0.78,3.15,-0.36,0.08,9.86
0.01,-0.69,3.02,-0.25,0.38,9.86
-1.07,-0.58,2.90,-0.32,0.15,9.75
-0.76,-0.57,2.70,-0.44,-0.93,9.66
0.46,-0.61,2.57,-0.49,-0.60,9.70
0.68,-0.78,2.48,-0.42,0.11,9.80
0.02,-0.84,2.35,-0.31,0.41,9.91
-1.34,-0.79,2.11,-0.28,-0.47,9.67
-0.78,-0.68,2.03,-0.29,-0.81,9.63
0.05,-0.71,1.94,-0.38,-0.69,9.52
0.71,-0.80,1.83,-0.50,-0.26,9.56
-0.08,-1.05,1.52,-0.30,0.05,9.77
-0.46,-1.09,1.40,-0.39,-0.38,9.65
-0.13,-1.22,1.26,-0.52,-0.75,9.46
1.02,-1.24,1.16,-0.44,-0.72,9.56
1.27,-1.20,0.97,-0.35,0.08,10.21
0.63,-1.23,0.84,-0.51,0.12,10.40
0.06,-1.71,0.67,-0.66,-0.19,10.07
0.27,-2.24,0.56,-0.38,-0.50,9.65
1.37,-1.63,0.42,-0.02,-0.31,9.73
1.05,-1.37,0.37,-0.14,-0.07,10.01
0.72,-1.59,0.32,-0.41,-0.16,10.26
0.56,-1.97,0.23,-0.37,-0.23,10.02
0.81,-1.28,0.19,0.49,-0.14,9.66
0.62,-0.45,0.14,0.28,-0.04,9.66
0.29,-0.06,0.05,-0.06,-0.16,9.89
0.11,-0.33,-0.07,-0.22,-0.36,10.12
0.54,-0.93,-0.09,0.18,-0.10,9.71
0.24,-0.84,-0.11,0.63,-0.03,9.65
-0.08,-0.28,-0.11,0.37,-0.10,9.51
-0.15,0.03,-0.17,-0.09,-0.41,9.49
0.73,-0.64,-0.36,-0.11,-0.44,10.15
0.79,-1.05,-0.39,-0.00,0.01,10.01
0.26,-1.34,-0.38,0.31,0.05,9.74
-0.00,-1.36,-0.38,0.24,-0.26,9.29
1.34,-0.75,-0.39,0.36,-0.34,9.60
1.15,-0.44,-0.34,0.21,0.02,9.90
0.39,-0.33,-0.38,-0.13,0.06,9.71
0.09,-0.39,-0.45,0.07,-0.25,9.66
0.72,0.35,-0.43,0.28,-0.19,10.33
0.29,0.29,-0.43,-0.06,0.03,10.35
-0.30,-0.18,-0.46,0.03,0.00,10.40
-0.66,-0.31,-0.40,0.35,-0.24,10.46
-0.23,0.30,-0.32,0.21,-0.43,10.10
0.02,0.35,-0.30,0.17,-0.18,10.31
-0.40,0.17,-0.33,-0.14,0.07,10.41
-0.93,-0.45,-0.35,-0.17,-0.08,10.09
-0.47,-0.60,-0.23,0.48,-0.35,9.82
-0.39,-0.32,-0.12,0.10,-0.11,9.59
-0.69,-0.46,-0.13,-0.02,-0.08,10.02
-1.03,-0.69,-0.07,-0.04,-0.09,10.16
-1.29,-0.60,-0.07,0.24,-0.36,9.44
-0.93,-0.01,0.02,0.44,-0.43,9.27
-0.52,0.48,0.13,0.16,-0.26,8.97
-0.37,0.62,0.17,0.16,-0.18,9.18
-0.76,1.08,0.15,-0.03,-0.38,9.45
-0.52,0.82,0.13,-0.15,-0.57,9.37
0.24,0.59,0.12,-0.09,-0.54,9.50
0.72,0.58,0.08,-0.01,-0.19,9.64
0.44,0.49,0.07,-0.13,0.18,9.80
-0.71,-0.32,-0.01,-0.11,-0.36,10.12
-0.41,-0.49,-0.06,-0.09,-0.67,10.04
0.37,-0.54,-0.08,-0.14,-0.53,9.86
0.59,-0.55,-0.18,-0.02,0.36,9.69
-0.25,-0.42,-0.16,0.06,0.17,9.77
-0.94,-0.16,-0.22,0.02,-0.38,9.68
-0.71,0.05,-0.26,-0.02,-0.76,9.61
1.17,0.27,-0.29,0.03,-0.25,9.62
0.96,0.43,-0.26,0.08,0.35,9.98
-0.30,0.40,-0.31,0.10,0.35,10.28
-1.26,0.29,-0.39,0.05,-0.28,10.26
-0.83,0.15,-0.37,-0.01,-0.84,10.06
0.79,-0.15,-0.25,-0.01,-0.10,10.10
0.52,-0.25,-0.25,0.15,0.41,10.07
-0.94,-0.35,-0.22,0.37,0.25,10.05
-0.96,-0.39,-0.12,-0.23,-0.91,9.17
0.57,-0.66,-0.19,-0.01,-0.90,9.08
1.71,-0.63,-0.19,0.34,-0.21,9.22
1.31,-0.24,-0.11,0.26,0.25,9.38
0.05,-0.36,-0.05,0.06,-0.63,9.22
1.31,-0.14,-0.05,0.00,-0.88,9.19
2.28,0.06,-0.08,0.24,-0.51,9.20
2.57,0.41,-0.08,0.10,0.14,9.26
1.96,0.67,-0.10,-0.02,0.34,9.60
0.97,0.64,-0.10,0.07,-0.59,10.22
1.80,0.53,-0.07,-0.04,-0.54,9.94
2.26,0.51,-0.10,0.13,-0.01,9.83
0.72,1.40,-0.16,0.19,0.24,10.36
0.30,1.38,-0.12,0.04,-0.02,10.64
0.24,1.01,-0.10,0.00,-0.37,10.76
0.41,0.62,-0.11,-0.03,-0.48,10.50
1.12,0.14,-0.08,0.13,0.13,9.99
0.52,0.17,-0.13,0.34,0.25,10.33
-0.19,0.33,-0.11,0.08,0.09,10.37
-0.39,-0.13,-0.07,-0.18,-0.27,10.02
0.02,-0.67,-0.06,-0.08,-0.50,9.78
0.84,0.07,0.01,0.34,0.07,9.64
0.28,0.45,-0.01,-0.03,0.21,9.90
-0.49,0.07,-0.07,-0.39,-0.09,9.98
0.24,-0.68,-0.02,0.11,-0.41,9.58
0.64,-0.32,0.05,0.16,-0.17,9.14
0.60,0.17,0.08,0.21,0.09,9.09
0.15,0.60,0.05,0.19,0.12,9.52
-0.36,0.79,-0.06,-0.30,-0.22,9.85
-0.13,0.34,-0.07,-0.30,-0.19,9.83
-0.02,-0.05,-0.10,0.05,-0.01,9.74
-0.25,-0.05,-0.10,0.01,0.06,9.69
-0.48,-0.54,-0.19,-0.36,-0.15,10.08
-0.24,-1.26,-0.22,-0.60,-0.01,10.27
-0.67,-1.97,-0.27,-0.32,0.03,10.18
-1.10,-2.13,-0.21,0.14,0.06,9.98
-1.40,-1.02,-0.11,-0.04,-0.25,9.79
-1.13,-0.88,-0.15,-0.32,-0.24,10.02
-0.88,-0.98,-0.21,-0.23,0.03,10.28
-1.23,-1.18,-0.21,-0.15,0.26,10.12
-1.79,-0.73,-0.30,0.31,-0.42,9.86
-0.74,-0.35,-0.16,0.34,-0.37,9.85
-0.22,-0.07,-0.14,0.05,0.03,10.16
-0.81,0.03,-0.23,-0.02,0.34,10.42
-2.10,-0.46,-0.31,-0.03,-0.18,10.22
-1.58,-0.48,-0.33,0.40,-0.42,10.02
-0.90,-0.17,-0.24,0.49,-0.10,9.81
-1.00,0.09,-0.18,0.39,0.31,9.73
-2.18,-0.06,-0.16,-0.08,0.01,9.63
-1.69,-0.20,-0.18,-0.05,-0.40,9.55
-1.05,-0.44,-0.20,0.15,-0.29,9.46
-0.61,-0.37,-0.20,0.30,0.13,9.53
-1.44,-0.55,-0.06,0.19,0.25,9.08
-1.36,-0.40,-0.08,0.10,-0.10,8.92
-0.94,-0.15,-0.07,0.24,-0.32,8.92
-0.03,0.14,-0.06,0.17,-0.17,9.14
-0.61,0.06,-0.13,0.07,0.43,9.32
-1.05,0.13,-0.13,0.15,0.10,9.32
-0.75,0.24,-0.12,-0.05,-0.29,9.24
-0.07,0.31,-0.12,-0.00,-0.29,9.63
-0.18,-0.42,-0.16,-0.43,0.33,9.66
-0.48,-1.13,-0.22,-0.43,0.25,9.35
-0.54,-1.44,-0.26,0.28,-0.02,9.53
-0.16,-1.07,-0.16,0.34,-0.19,9.60
0.56,-1.18,-0.17,-0.17,-0.16,9.37
1.15,-1.16,-0.18,0.06,0.09,9.90
0.86,-0.94,-0.21,-0.01,0.32,9.90
0.34,-0.78,-0.24,0.11,0.26,9.96
0.12,-0.14,-0.23,0.19,-0.27,10.32
0.85,-0.15,-0.10,-0.09,-0.14,10.24
1.12,-0.42,-0.11,-0.11,0.26,10.40
0.45,-0.40,-0.15,0.01,0.62,10.36
-1.23,-0.21,-0.21,0.07,-0.36,9.91
-0.17,-0.34,-0.17,-0.02,-0.59,9.38
1.42,-0.57,-0.10,0.19,-0.09,9.30
1.57,-0.48,-0.09,0.45,0.53,9.65
-0.84,-0.44,-0.14,-0.14,0.15,9.70
-0.80,-0.90,-0.23,-0.11,-0.59,9.65
0.75,-0.94,-0.21,-0.19,-0.63,9.30
1.94,-1.22,-0.19,0.11,-0.03,9.25
0.63,-1.08,-0.20,0.07,0.65,9.59
-0.30,-1.10,-0.24,-0.02,0.05,9.78
-0.07,-1.24,-0.28,-0.28,-0.52,9.72
0.97,-1.41,-0.27,0.02,-0.56,9.59
1.94,-0.61,-0.13,0.40,0.48,9.40
1.01,-0.09,-0.09,0.30,0.33,9.50
0.70,0.27,-0.11,0.18,-0.27,9.78
1.54,0.50,-0.15,0.02,-0.69,9.86
3.78,0.23,-0.09,0.15,0.45,10.24
2.60,0.00,-0.14,0.17,0.90,10.68
1.11,0.03,-0.16,0.27,0.69,10.97
-0.08,-0.29,-0.07,0.03,-0.26,10.80
0.59,-0.31,-0.01,0.09,-0.10,10.63
0.48,-0.37,0.06,0.35,0.39,10.65
-0.34,-0.04,0.06,0.40,0.77,10.62
-1.70,0.30,0.09,0.29,0.56,10.55
-1.96,-0.12,0.06,-0.04,-0.52,9.79
-0.83,-0.34,0.11,0.18,-0.42,9.50
-0.15,-0.20,0.19,0.20,0.01,9.20
-0.33,-0.05,0.11,0.17,0.32,9.02
-0.95,0.28,0.11,0.16,-0.15,8.89
-0.40,0.35,-0.01,-0.11,-0.46,8.80
0.51,0.08,-0.06,-0.16,-0.37,8.85
1.35,-0.23,-0.04,-0.08,-0.05,9.04
0.86,-0.18,-0.09,0.20,0.19,9.46
0.88,-0.06,-0.07,-0.00,-0.10,9.45
1.40,-0.14,-0.08,-0.30,-0.31,9.36
2.33,-0.01,-0.15,-0.02,-0.13,9.67
1.61,0.25,-0.23,-0.07,0.80,10.16
0.45,0.14,-0.30,0.03,0.44,10.35
0.14,0.02,-0.23,0.24,-0.18,10.49
0.70,0.17,-0.18,0.11,-0.42,10.67
0.95,-0.04,-0.17,-0.13,0.53,11.11
-0.18,-0.15,-0.21,0.08,0.67,11.43
-1.43,-0.18,-0.17,0.31,0.40,11.33
-1.89,0.01,-0.15,0.17,0.05,10.98
-1.37,-0.36,-0.06,0.07,-0.14,9.46
-1.02,-0.44,-0.03,0.37,-0.06,9.16
-1.07,0.25,-0.04,0.59,-0.03,9.15
-1.09,0.73,-0.01,0.18,0.11,8.71
-0.89,0.53,0.00,-0.07,-0.07,8.61
0.14,0.55,0.00,0.19,-0.10,8.94
0.36,0.62,-0.01,0.07,-0.03,8.96
0.37,0.31,-0.03,0.09,-0.12,9.19
1.31,-0.00,-0.04,-0.11,0.01,9.58
1.36,-0.46,-0.04,-0.25,0.21,9.50
1.29,-0.66,-0.07,0.02,0.20,9.76
1.04,-0.58,-0.07,0.07,0.07,9.91
1.45,-0.83,-0.15,-0.28,0.08,10.07
1.43,-1.19,-0.16,-0.13,0.25,10.09
1.15,-1.07,-0.08,0.21,0.36,10.21
0.54,-0.52,-0.08,0.29,0.32,10.35
-0.08,0.26,-0.07,0.10,-0.09,10.47
0.13,0.55,-0.07,0.23,-0.07,10.85
0.13,0.86,-0.06,-0.06,0.25,10.70
-0.33,0.64,-0.11,-0.18,0.42,10.31
-1.10,0.43,-0.20,0.35,-0.35,10.12
-0.53,0.50,-0.17,0.35,-0.42,9.94
0.24,0.35,-0.11,-0.07,-0.13,9.73
0.40,-0.20,-0.13,-0.10,0.24,9.73
-0.54,-0.71,-0.11,0.14,0.39,9.74
-1.17,-0.77,-0.14,0.09,-0.09,9.35
-0.54,-0.76,-0.08,0.16,-0.45,9.20
0.54,-0.69,0.01,0.03,-0.34,9.11
1.19,-0.74,-0.03,0.17,0.11,9.09
0.16,0.10,0.15,0.40,0.46,9.34
-0.50,0.50,0.13,0.15,-0.04,9.11
0.17,0.74,0.16,0.10,-0.43,9.23
1.66,0.57,0.14,-0.19,0.35,9.57
1.16,0.09,0.08,-0.25,0.68,9.68
-0.11,-0.36,0.03,0.10,0.36,10.00
-0.41,-0.36,0.05,0.03,-0.08,10.06
0.72,-0.88,0.11,-0.11,-0.09,10.01
0.78,-1.05,0.12,-0.10,0.36,10.30
0.12,-0.89,0.11,-0.11,0.59,10.48
-0.84,-0.92,0.07,-0.16,0.37,10.42
-1.06,-0.77,0.02,0.26,-0.33,10.42
-0.61,-0.42,0.13,0.28,-0.29,10.27
-0.18,0.01,0.14,-0.03,0.11,10.02
-0.40,0.35,0.13,0.26,0.43,10.13
-1.67,1.45,0.06,0.07,0.26,10.26
-1.89,1.41,-0.02,0.03,-0.27,9.98
-1.27,1.29,0.04,0.37,-0.52,9.95
-0.47,1.52,0.13,0.57,-0.17,10.02
-1.23,1.07,0.21,-0.21,0.50,10.14
-1.90,0.36,0.09,-0.25,0.09,10.29
-1.73,-0.31,0.09,0.03,-0.31,9.85
-0.77,-0.71,0.13,0.16,-0.42,9.38
0.26,-0.61,0.12,0.16,0.04,9.02
0.24,-0.74,0.15,0.11,0.18,9.19
0.19,-0.85,0.17,-0.19,0.13,9.14
0.23,-0.99,0.09,-0.25,-0.11,9.09
1.53,-0.49,0.07,0.22,-0.13,9.26
1.62,-0.10,0.11,-0.16,0.16,9.27
1.59,0.14,0.07,-0.32,0.29,9.50
1.25,-0.02,0.05,-0.13,0.18,9.72
1.20,0.23,-0.04,-0.02,0.08,9.41
1.01,0.38,-0.03,0.27,-0.19,9.67
1.32,0.56,-0.02,0.08,-0.18,9.85
1.73,0.41,0.00,-0.29,0.17,9.90
0.65,-0.30,-0.05,-0.12,0.55,10.36
-0.09,-0.56,-0.03,0.00,0.16,10.10
-0.20,-0.69,-0.02,0.38,-0.23,10.18
0.32,-0.24,0.02,0.46,-0.14,10.35
-0.08,0.39,0.21,0.28,0.55,10.20
-0.79,0.73,0.20,0.31,0.56,10.25
-1.51,1.20,0.15,0.20,0.21,9.96
-1.42,1.40,0.19,0.26,-0.22,9.52
-0.46,1.89,0.24,0.34,-0.25,9.23
-0.21,1.95,0.32,0.24,-0.01,9.25
-0.54,1.52,0.30,-0.06,0.04,9.39
-0.50,1.17,0.24,-0.17,-0.08,9.42
-0.21,0.60,0.20,0.21,-0.33,9.66
0.16,0.39,0.24,-0.00,-0.25,9.40
0.47,-0.00,0.21,-0.11,-0.20,9.52
0.74,-0.10,0.13,-0.06,-0.03,9.98
0.18,-0.93,0.05,-0.55,0.24,10.38
-0.36,-1.62,0.01,-0.32,0.02,10.56
-0.32,-1.79,0.06,0.07,-0.11,10.54
-0.23,-1.46,0.09,0.05,-0.02,10.31
-0.70,-0.83,0.03,-0.26,0.26,10.45
-1.43,-0.63,-0.02,-0.00,0.16,10.80
-2.07,-0.48,-0.02,-0.17,-0.13,10.64
-2.02,-0.47,-0.03,-0.12,-0.45,10.51
-1.37,0.15,0.09,0.16,-0.17,10.26
-1.62,0.50,0.05,-0.08,0.17,10.20
-2.36,0.40,-0.05,-0.27,0.08,10.22
-2.49,-0.14,-0.11,-0.33,-0.20,10.08
-2.40,-0.96,-0.04,0.23,-0.42,9.38
-2.12,-0.96,0.05,0.20,-0.41,8.87
-1.58,-0.98,0.08,0.21,-0.43,8.78
-0.88,-0.80,0.06,0.19,-0.43,8.93
-0.52,-0.32,0.19,0.21,-0.12,9.13
-0.69,-0.09,0.17,0.27,-0.28,8.98
-0.65,0.27,0.17,0.23,-0.35,8.80
0.16,0.97,0.07,0.16,-0.39,9.12
0.37,1.09,0.04,0.04,-0.08,9.59
-0.17,0.86,-0.07,-0.02,0.15,9.90
-1.09,0.21,-0.06,-0.30,-0.02,9.69
-1.07,-0.22,-0.07,-0.15,-0.44,9.73
-0.69,-0.43,-0.15,-0.02,-0.22,9.78
-0.84,-0.57,-0.18,-0.12,-0.04,9.78
-1.24,-0.86,-0.18,-0.11,-0.11,9.79
-1.47,-0.90,-0.21,0.04,-0.34,9.84
-0.95,-1.00,-0.09,-0.08,-0.45,9.61
-0.61,-1.15,-0.08,0.01,-0.48,9.69
-0.62,-1.15,-0.01,0.09,-0.53,9.71
-0.18,-0.93,0.02,0.02,-0.45,9.59
-0.35,-0.52,0.10,0.33,-0.61,9.82
-0.22,-0.04,0.09,0.38,-0.74,10.02
-0.26,0.16,0.18,0.20,-0.68,10.01
0.07,0.26,0.23,0.04,-0.73,10.05
0.81,0.38,0.31,0.28,-0.45,10.08
0.94,0.60,0.39,0.27,-0.11,9.83
0.45,0.80,0.35,0.24,-0.02,9.70
0.28,1.08,0.35,0.13,-0.27,9.84
0.82,0.50,0.24,-0.08,-0.63,10.03
1.39,0.26,0.26,0.15,-0.28,10.02
1.19,0.25,0.28,0.26,0.04,9.93
0.75,0.37,0.22,0.13,0.03,9.67
0.74,0.09,0.16,-0.16,-0.61,9.45
1.19,-0.03,0.04,-0.16,-0.77,9.44
1.64,-0.40,-0.01,-0.15,-0.59,9.38
1.72,-0.77,-0.01,-0.14,-0.42,9.29
1.32,-1.01,-0.03,-0.10,-0.47,9.18
1.52,-0.60,-0.04,0.18,-0.77,9.09
2.02,-0.14,0.00,0.00,-0.61,8.99
2.38,0.23,0.01,0.19,-0.37,9.26
1.75,1.17,0.07,0.24,-0.13,10.04
1.55,1.39,0.08,0.25,-0.14,10.23
1.18,1.47,0.15,0.20,-0.22,10.33
0.94,1.50,0.13,0.08,-0.26,10.27
0.56,1.43,0.10,0.20,-0.30,10.71
0.10,1.09,0.13,0.09,-0.48,10.91
0.22,0.62,0.22,-0.10,-0.53,10.81
0.08,0.09,0.25,0.12,-0.64,10.96
-0.25,0.00,0.26,0.26,-0.51,10.96
-0.78,-0.01,0.34,-0.07,-0.73,10.31
-0.60,-0.10,0.34,0.21,-0.71,10.27
-0.18,0.25,0.47,0.34,-0.43,10.20
-0.76,0.48,0.52,0.06,-0.44,9.38
-0.47,0.89,0.50,0.21,-0.71,9.33
0.11,1.41,0.49,0.18,-0.77,9.28
0.74,1.73,0.45,-0.06,-0.56,9.43
0.06,1.32,0.42,0.00,-0.25,9.90
-0.28,1.09,0.36,-0.12,-0.48,10.05
-0.83,0.75,0.26,-0.32,-0.83,9.96
-0.73,0.29,0.24,-0.34,-1.22,9.78
0.27,-0.47,0.16,-0.27,-0.77,9.76
0.09,-0.67,0.17,-0.34,-0.53,9.69
-0.78,-1.29,0.13,-0.21,-0.61,9.83
-0.80,-1.30,0.12,-0.19,-0.75,9.98
-0.80,-1.29,0.10,-0.09,-0.97,9.91
-0.45,-1.19,0.16,-0.22,-0.71,9.66
-0.39,-1.00,0.22,0.10,-0.56,9.73
-0.72,-0.37,0.20,0.41,-0.54,10.17
-2.04,0.78,0.31,-0.10,-0.79,9.94
-2.39,0.73,0.27,-0.09,-1.05,9.79
-2.23,0.96,0.21,0.25,-1.32,9.67
-1.76,1.44,0.25,0.28,-1.35,9.58
-1.30,1.39,0.21,-0.09,-1.41,10.37
-1.14,0.64,0.22,-0.30,-1.16,10.32
-1.19,-0.22,0.29,-0.13,-0.97,10.13
-1.62,-0.60,0.34,0.05,-0.84,9.87
-2.34,-0.30,0.29,0.14,-1.07,9.36
-2.14,-0.39,0.30,-0.19,-1.20,9.08
-1.40,-0.62,0.25,-0.15,-1.34,9.02
-0.48,-0.70,0.22,0.04,-1.41,9.17
0.02,-0.24,0.19,-0.01,-1.10,9.33
-0.27,-0.12,0.16,-0.16,-1.23,9.36
-0.14,-0.12,0.07,-0.32,-1.42,9.46
0.59,-0.15,0.01,-0.23,-1.27,9.46
0.25,-0.01,-0.06,0.06,-1.00,9.38
-0.04,0.32,-0.09,-0.01,-1.27,9.38
0.24,0.43,-0.08,-0.06,-1.53,9.76
0.93,0.33,-0.08,-0.10,-1.50,10.18
0.77,-0.15,-0.03,0.10,-0.52,10.43
-0.57,-0.19,-0.01,0.03,-0.64,10.27
-1.18,-0.28,-0.00,0.08,-1.35,10.16
-0.79,-0.34,-0.01,0.09,-1.80,10.32
-0.06,-0.64,0.06,-0.02,-1.14,10.40
-0.89,-1.00,0.09,-0.01,-0.96,10.27
-1.43,-0.97,0.18,0.18,-1.20,10.10
-1.65,-0.70,0.21,0.35,-1.51,10.07
-1.33,-0.19,0.31,0.10,-1.52,9.45
-1.22,-0.00,0.32,0.01,-1.38,9.18
-1.01,0.40,0.33,0.30,-1.30,9.30
-1.13,0.69,0.37,0.32,-1.25,9.40
-1.04,0.53,0.36,0.04,-1.45,9.17
-0.83,0.37,0.36,0.14,-1.53,9.23
-0.60,0.46,0.35,0.09,-1.48,9.17
-0.44,0.47,0.31,0.01,-1.48,9.27
-0.42,0.58,0.15,0.07,-1.35,9.78
-0.40,0.60,0.17,-0.13,-1.36,9.92
-0.51,0.19,0.15,-0.26,-1.51,9.72
-0.26,-0.12,0.09,0.15,-1.57,9.78
-0.09,0.32,0.11,-0.13,-1.29,9.50
-0.23,0.17,0.05,-0.13,-1.49,9.85
-0.24,0.05,0.03,-0.08,-1.58,10.31
-0.33,-0.11,-0.01,-0.13,-1.44,10.17
-0.43,-0.13,0.09,0.26,-1.50,9.83
-0.42,0.35,0.10,0.17,-1.54,10.00
-0.41,0.52,0.11,-0.07,-1.53,10.25
-0.67,0.11,0.09,-0.18,-1.60,10.43
-0.69,-0.56,0.10,0.01,-1.64,10.06
-0.68,-0.57,0.15,0.17,-1.54,9.77
-0.49,-0.24,0.21,0.02,-1.41,9.61
-0.71,-0.18,0.20,0.05,-1.54,9.89
-0.69,-0.75,0.17,-0.24,-1.64,9.85
-0.57,-1.17,0.21,-0.00,-1.47,9.50
-0.54,-0.93,0.23,0.25,-1.41,9.45
-0.91,-0.49,0.19,0.26,-1.50,9.38
-0.54,-0.38,0.32,-0.09,-1.86,9.57
-0.49,-0.46,0.30,-0.03,-1.75,9.63
-0.41,-0.17,0.31,0.11,-1.57,9.56
-0.67,0.01,0.29,0.22,-1.57,9.41
-0.58,0.40,0.23,-0.08,-1.80,9.48
-0.53,0.20,0.14,-0.22,-1.76,9.44
-0.05,-0.01,0.10,-0.17,-1.69,9.37
0.09,-0.33,0.10,-0.08,-1.61,9.21
-0.01,-0.31,0.04,0.12,-1.72,9.35
0.04,-0.30,-0.01,0.06,-1.85,9.68
0.41,-0.16,-0.04,-0.07,-1.74,10.08
-0.07,-0.35,-0.01,-0.31,-1.58,10.27
-0.46,-0.84,-0.04,0.22,-1.77,10.38
-0.67,-0.41,0.04,0.46,-1.64,10.23
-1.16,0.10,0.13,0.06,-1.52,9.70
-1.58,0.07,0.10,-0.15,-1.77,9.72
-0.80,-0.22,0.06,0.02,-2.22,9.96
-0.30,-0.32,0.08,0.03,-1.98,9.80
0.04,-0.34,0.09,0.28,-1.84,9.88
-0.18,-0.34,0.13,0.19,-1.69,9.95
-0.51,-0.24,0.18,0.04,-1.87,9.89
-0.59,-0.26,0.18,0.08,-2.08,9.94
-0.29,-0.25,0.16,-0.02,-2.08,9.76
-0.26,-0.28,0.14,0.16,-1.94,9.64
-0.35,-0.13,0.14,0.36,-1.87,9.57
-0.72,0.41,0.16,0.06,-2.08,9.63
-0.67,0.30,0.18,0.05,-2.18,9.78
-0.36,0.18,0.20,-0.03,-2.04,9.59
-0.17,0.20,0.17,0.34,-1.85,9.37
-0.48,0.50,0.16,0.29,-2.03,9.65
-0.60,0.56,0.17,-0.11,-2.19,9.68
-0.40,0.10,0.15,-0.30,-2.18,9.58
0.18,-0.16,0.07,0.13,-2.11,9.36
0.25,0.25,0.06,0.16,-2.00,9.41
-0.01,0.43,0.04,0.03,-2.18,9.83
0.01,0.19,0.02,-0.23,-2.26,9.86
0.29,-0.21,0.00,-0.16,-2.22,9.87
0.62,0.14,0.03,0.18,-1.99,9.52
0.47,0.54,0.08,0.09,-1.95,9.62
0.14,0.61,0.06,-0.04,-2.23,9.88
0.89,0.17,0.02,-0.13,-2.26,9.88
1.20,-0.11,0.04,0.02,-2.09,9.72
1.21,-0.04,0.08,0.14,-1.94,9.79
0.78,0.10,0.11,0.07,-2.11,10.06
0.45,-0.32,0.09,0.08,-2.46,10.34
0.87,-0.28,0.20,0.28,-2.21,10.25
0.65,0.01,0.21,0.21,-1.96,9.97
0.27,0.46,0.17,0.14,-1.98,9.96
0.09,0.76,0.13,0.04,-2.31,10.26
0.11,0.56,0.15,-0.05,-2.31,10.04
0.24,0.46,0.13,0.24,-2.19,9.81
0.12,0.66,0.21,0.49,-1.97,9.55
-0.24,1.38,0.29,-0.00,-2.28,9.61
-0.12,1.16,0.23,-0.29,-2.43,9.58
0.22,0.84,0.19,0.02,-2.39,9.61
0.32,0.74,0.24,0.35,-2.21,9.33
0.29,1.36,0.30,0.34,-2.51,9.04
0.83,1.54,0.35,0.20,-2.63,9.33
1.50,1.56,0.37,-0.04,-2.43,9.55
1.35,1.30,0.35,-0.00,-2.12,9.64
0.42,1.45,0.30,-0.13,-2.08,9.65
0.27,1.22,0.19,-0.27,-2.38,9.66
0.81,0.76,0.14,-0.29,-2.48,9.88
0.93,0.26,0.10,-0.23,-2.39,9.96
0.95,-0.30,0.04,-0.19,-2.21,9.91
0.96,-0.49,0.06,-0.30,-2.11,9.96
0.70,-0.76,0.05,-0.33,-2.10,10.07
0.45,-0.88,-0.01,-0.36,-2.16,10.22
-0.23,-0.79,-0.09,0.09,-2.47,10.32
-0.15,-0.51,-0.02,0.10,-2.49,10.28
0.29,-0.06,0.06,-0.27,-2.22,9.96
0.11,0.10,-0.00,-0.06,-1.99,10.18
-1.69,0.79,0.04,-0.20,-2.14,10.52
-2.17,0.46,0.02,-0.13,-2.74,10.35
-1.34,0.26,0.01,0.11,-3.00,10.27
-0.36,0.37,0.09,0.09,-2.51,9.86
-1.18,0.46,0.10,0.04,-1.78,9.92
-2.07,0.16,0.01,-0.16,-2.32,9.98
-2.00,-0.47,0.02,-0.21,-2.92,9.59
-0.85,-0.87,0.09,0.15,-3.00,9.32
0.07,-0.14,0.19,0.39,-2.02,9.23
-0.75,0.24,0.18,0.19,-2.01,9.57
-1.34,0.21,0.20,-0.12,-2.39,9.70
-0.98,0.00,0.22,-0.14,-2.74,9.56
-0.02,0.49,0.31,0.48,-2.26,9.22
-0.36,0.95,0.34,0.21,-2.05,9.09
-0.89,1.06,0.25,-0.02,-2.28,9.38
-0.73,0.93,0.20,-0.13,-2.57,9.65
-0.47,0.28,0.18,0.06,-2.23,9.68
-1.04,0.27,0.22,0.29,-2.15,9.68
-1.58,0.54,0.22,0.17,-2.28,9.67
-1.85,0.61,0.19,-0.13,-2.51,9.87
-1.67,-0.10,-0.02,-0.32,-2.56,10.03
-1.61,-0.29,-0.08,-0.08,-2.45,9.85
-1.79,-0.14,-0.14,0.13,-2.35,9.67
-2.02,0.12,-0.12,0.15,-2.42,9.69
-1.59,0.20,-0.12,-0.22,-2.60,9.73
-1.32,0.13,-0.13,-0.18,-2.53,9.51
-1.20,0.19,-0.15,-0.02,-2.50,9.31
-1.12,0.59,-0.19,0.12,-2.53,9.24
-0.46,0.77,-0.14,-0.09,-2.71,9.78
-0.31,0.52,-0.10,-0.04,-2.65,10.14
-0.55,0.35,-0.06,0.05,-2.52,10.22
-0.89,0.29,-0.04,0.03,-2.48,10.17
-0.86,0.33,-0.02,-0.05,-2.51,10.30
-0.84,0.19,-0.02,-0.04,-2.37,10.32
-1.36,-0.11,0.02,0.11,-2.39,10.26
-1.60,-0.22,0.10,0.05,-2.77,9.77
-1.12,-0.36,0.18,-0.03,-2.62,9.71
-1.07,-0.58,0.19,-0.23,-2.27,9.65
-1.74,-0.89,0.07,-0.23,-2.16,9.60
-2.47,-1.16,0.03,-0.11,-2.50,9.53
-1.93,-1.20,0.13,0.01,-3.10,9.15
-1.17,-1.06,0.16,0.03,-2.79,9.01
-1.00,-0.80,0.17,0.08,-2.40,9.11
-1.47,-0.45,0.16,-0.10,-2.36,9.30
-1.88,-0.39,-0.05,-0.23,-2.96,9.36
-1.12,-0.43,-0.03,0.00,-3.01,9.20
-0.68,-0.31,0.02,0.32,-2.77,9.07
-0.65,0.56,0.07,0.01,-2.53,9.25
-0.81,0.51,0.01,-0.25,-2.73,9.58
-0.60,0.38,-0.09,-0.26,-2.76,9.81
-0.92,0.03,-0.13,-0.01,-2.73,9.79
-0.93,0.12,-0.13,0.33,-2.73,9.68
-1.04,0.69,0.13,0.25,-2.75,9.50
-0.48,0.89,0.07,-0.15,-2.94,9.77
-0.37,0.38,-0.05,-0.41,-2.94,9.88
-0.14,-0.10,-0.19,-0.18,-2.86,10.05
-0.59,-0.36,-0.13,0.20,-2.72,9.51
-0.56,-0.28,-0.12,0.21,-2.82,9.54
-0.36,-0.22,-0.04,-0.03,-2.98,9.67
0.26,-0.39,-0.05,-0.28,-2.95,9.73
0.32,-0.89,-0.15,-0.05,-2.83,9.54
0.41,-0.63,-0.18,0.22,-2.87,9.43
0.53,-0.18,-0.20,0.21,-2.84,9.43
0.84,0.05,-0.13,-0.07,-2.76,9.55
0.67,-0.21,-0.02,0.03,-2.61,10.09
0.14,-0.15,0.02,0.11,-2.59,9.85
-0.00,0.11,0.04,0.13,-2.69,9.66
0.24,0.47,0.04,0.16,-2.78,9.72
0.32,0.70,0.09,0.09,-2.42,10.09
-0.30,0.65,0.16,0.18,-2.55,10.21
-0.56,0.62,0.24,0.15,-2.83,10.03
-0.40,0.56,0.29,0.08,-3.08,9.66
0.84,0.89,0.20,0.00,-2.68,9.67
0.56,0.71,0.16,-0.13,-2.46,9.87
0.02,0.10,0.14,-0.24,-2.62,9.94
-0.35,-0.56,0.12,-0.01,-2.99,9.84
0.10,-0.78,0.18,0.19,-3.09,9.44
0.99,-0.31,0.18,0.11,-2.55,9.29
0.80,-0.18,0.19,-0.10,-2.30,9.58
0.37,-0.39,0.13,-0.18,-2.29,9.79
-0.18,-0.51,0.13,0.13,-2.70,9.35
0.20,-0.13,0.15,0.19,-2.79,9.15
0.54,0.30,0.15,0.17,-2.74,9.32
0.65,0.59,0.17,0.02,-2.54,9.63
0.05,0.08,0.07,-0.30,-2.37,9.38
-0.04,0.02,0.02,0.05,-2.56,9.19
0.21,0.40,0.01,0.17,-2.70,9.09
0.61,0.64,0.02,0.04,-2.70,9.13
1.01,0.41,0.05,-0.16,-2.56,9.46
0.66,-0.23,0.07,0.02,-2.23,9.88
0.14,-0.32,0.06,0.03,-2.20,9.77
-0.16,-0.25,0.07,-0.10,-2.46,9.72
0.29,-0.15,0.10,0.04,-2.70,10.23
0.34,-0.11,0.13,-0.03,-2.39,10.21
-0.03,-0.19,0.18,0.08,-2.25,10.07
-0.48,-0.08,0.20,0.12,-2.43,9.99
0.04,0.31,0.14,-0.07,-2.83,9.95
0.37,0.29,0.12,0.02,-2.61,10.04
0.54,0.27,0.17,0.02,-2.31,9.95
0.27,0.10,0.19,0.12,-2.22,9.81
0.21,0.32,0.23,-0.01,-2.70,9.69
0.63,0.23,0.18,-0.21,-2.87,9.78
1.26,-0.03,0.12,-0.20,-2.66,9.91
1.45,-0.24,0.08,0.02,-2.22,9.98
0.26,-0.05,0.18,0.14,-2.14,9.79
0.09,0.04,0.16,0.01,-2.62,9.88
0.50,0.26,0.10,-0.04,-2.76,10.10
0.82,0.28,0.12,-0.28,-2.45,9.96
0.18,-0.06,0.00,0.15,-1.97,9.75
-0.35,0.17,-0.00,0.25,-2.16,9.67
-0.46,0.35,-0.01,-0.12,-2.44,9.64
-0.16,-0.00,-0.03,-0.42,-2.65,9.70
0.25,-0.70,-0.20,-0.14,-2.14,9.96
-0.39,-0.84,-0.21,-0.00,-1.93,9.95
-1.29,-1.07,-0.21,-0.01,-2.13,9.92
-1.48,-1.15,-0.15,-0.07,-2.59,9.87
-0.43,-1.00,-0.10,-0.04,-2.62,9.74
-0.36,-0.79,-0.14,-0.02,-2.26,9.76
-0.78,-0.66,-0.08,0.14,-2.15,9.65
-0.95,-0.47,-0.00,0.16,-2.35,9.45
0.18,0.27,0.15,0.17,-2.51,9.16
0.76,0.51,0.19,0.18,-2.25,9.22
0.72,0.86,0.17,0.19,-2.06,9.39
0.45,1.05,0.19,0.09,-2.09,9.49
0.58,0.64,0.21,-0.01,-2.48,9.75
0.98,0.49,0.27,0.20,-2.29,9.74
0.83,0.45,0.27,0.16,-2.05,9.81
0.14,0.41,0.22,0.01,-2.11,9.99
-0.05,-0.35,0.13,-0.01,-2.48,10.27
0.01,-0.57,0.13,0.11,-2.24,10.20
-0.29,-0.61,0.17,0.19,-2.00,9.89
-0.67,-0.59,0.19,0.23,-2.10,9.79
-0.52,-0.11,0.15,0.06,-2.26,10.14
-0.60,-0.25,0.15,-0.04,-2.13,10.04
-0.73,-0.30,0.15,-0.05,-2.10,9.84
-0.90,-0.05,0.12,0.20,-2.20,9.70
-0.58,0.63,0.10,-0.01,-2.35,9.61
-0.37,0.62,0.10,-0.21,-2.37,9.67
-0.24,0.43,0.06,-0.15,-2.36,9.60
-0.25,0.30,0.00,0.07,-2.33,9.40
0.34,0.83,-0.01,-0.01,-2.32,8.94
0.95,0.83,-0.04,0.04,-2.33,9.21
1.28,0.73,-0.01,-0.01,-2.10,9.42
1.16,0.61,0.03,-0.16,-1.87,9.36
0.87,0.33,-0.03,0.05,-2.05,9.45
1.14,0.42,-0.01,0.01,-2.09,9.43
1.29,0.38,0.01,0.01,-2.05,9.64
1.27,0.29,0.09,-0.06,-1.92,9.93
0.45,-0.22,0.14,-0.05,-1.97,10.01
0.28,-0.27,0.17,-0.02,-2.15,9.99
0.34,-0.22,0.19,-0.00,-2.15,9.89
0.50,-0.24,0.23,-0.04,-2.02,9.88
0.01,-0.29,0.22,-0.12,-1.87,10.00
-0.27,-0.40,0.21,-0.13,-1.99,9.97
-0.29,-0.51,0.25,-0.15,-2.07,9.67
-0.06,-0.43,0.23,0.06,-2.06,9.51
0.06,0.17,0.26,-0.05,-1.97,9.65
-0.02,0.05,0.23,-0.23,-2.04,9.76
0.08,-0.15,0.23,-0.19,-2.15,9.79
0.43,-0.07,0.19,0.07,-2.12,9.47
0.73,0.23,0.20,0.14,-2.05,9.52
0.92,0.42,0.20,0.09,-1.95,9.70
0.97,0.46,0.20,-0.01,-1.85,9.87
0.87,0.34,0.19,0.02,-1.81,9.94
0.75,0.45,0.19,0.10,-1.75,9.75
0.71,0.59,0.18,0.09,-1.79,9.72
0.75,0.63,0.07,0.02,-1.83,9.78
0.99,0.67,0.01,-0.02,-1.89,9.85
0.93,0.35,-0.03,0.07,-1.73,9.93
0.56,0.35,-0.06,0.07,-1.63,9.91
0.15,0.27,-0.06,-0.02,-1.56,9.86
-0.21,0.08,-0.07,-0.13,-1.70,9.84
-0.26,-0.30,-0.19,-0.08,-1.91,9.83
-0.27,-0.38,-0.18,-0.08,-1.87,9.70
-0.31,-0.47,-0.19,-0.03,-1.86,9.59
-0.23,-0.50,-0.16,0.05,-1.88,9.63
-0.16,-0.46,-0.13,0.03,-1.86,9.67
-0.12,-0.54,-0.08,-0.13,-1.85,9.70
-0.13,-0.57,-0.08,-0.06,-1.91,9.68
0.09,-0.44,-0.05,0.05,-1.92,9.72
0.30,-0.13,0.08,-0.04,-1.77,9.71
0.39,-0.11,0.11,-0.09,-1.74,9.78
0.30,-0.09,0.14,0.00,-1.72,9.92
0.26,0.03,0.17,-0.02,-1.71,9.96
0.06,0.05,0.19,-0.03,-1.76,9.99
0.10,0.04,0.22,-0.01,-1.78,9.94
0.01,0.02,0.21,0.02,-1.78,9.88
0.04,0.08,0.21,-0.01,-1.76,9.78
0.03,0.08,0.22,0.02,-1.73,9.71
-0.11,0.02,0.21,0.01,-1.74,9.57
-0.18,-0.03,0.21,0.08,-1.81,9.56
-0.14,0.04,0.18,0.08,-1.82,9.51
-0.02,0.07,0.14,0.06,-1.77,9.36
0.06,0.10,0.12,0.07,-1.79,9.38
0.00,0.12,0.12,0.12,-1.87,9.51
0.05,0.15,0.09,0.08,-1.92,9.57
0.43,0.07,0.02,-0.01,-1.83,9.59
0.40,0.06,-0.02,0.06,-1.73,9.66
0.25,0.09,-0.04,0.06,-1.78,9.72
0.23,0.15,-0.05,0.05,-1.88,9.85
0.34,0.12,-0.04,0.03,-1.93,9.90
0.63,0.04,-0.01,0.03,-1.70,9.95
0.42,0.11,-0.01,0.06,-1.62,10.08
0.09,0.08,-0.02,0.02,-1.71,10.23
0.01,-0.23,-0.01,-0.04,-1.96,10.14
0.16,-0.25,0.05,0.09,-1.86,10.09
0.09,-0.10,0.09,0.07,-1.69,10.00
-0.18,0.01,0.11,0.04,-1.69,10.05
-0.53,-0.06,0.11,-0.15,-1.97,10.07
-0.38,-0.21,0.11,-0.05,-1.98,9.94
-0.24,-0.17,0.16,0.08,-1.84,9.79
-0.43,-0.02,0.19,0.12,-1.73,9.65
-0.56,0.16,0.22,-0.10,-1.96,9.70
-0.38,0.08,0.21,-0.09,-1.98,9.67
-0.19,-0.06,0.23,0.00,-1.87,9.52
-0.20,-0.01,0.24,0.13,-1.78,9.36
-0.17,0.36,0.26,0.04,-1.92,9.34
0.04,0.29,0.24,-0.11,-1.98,9.44
0.30,0.08,0.24,-0.14,-1.91,9.49
0.39,-0.09,0.19,-0.02,-1.78,9.48
0.19,0.01,0.16,0.05,-1.78,9.35
0.30,0.12,0.13,-0.02,-1.90,9.50
0.51,0.09,0.12,-0.15,-1.91,9.68
0.56,-0.12,0.09,-0.19,-1.78,9.73
0.11,-0.14,0.03,0.11,-1.69,9.76
-0.07,0.01,-0.01,-0.07,-1.84,9.64
0.16,0.01,-0.06,-0.11,-1.98,9.79
0.39,-0.05,-0.06,-0.07,-1.88,9.99
-0.10,-0.21,-0.10,-0.03,-1.60,9.90
-0.37,-0.14,-0.12,0.07,-1.78,9.90
-0.31,-0.02,-0.12,-0.02,-1.97,9.85
-0.05,-0.02,-0.16,-0.11,-2.02,9.83
0.09,-0.17,-0.13,-0.05,-1.72,9.97
-0.25,-0.26,-0.13,-0.03,-1.73,9.88
-0.39,-0.32,-0.12,0.05,-1.91,9.81
-0.19,-0.24,-0.12,0.06,-2.03,9.75
0.28,-0.12,-0.10,0.00,-1.90,9.70
0.25,-0.10,-0.08,0.05,-1.78,9.79
0.12,-0.10,-0.02,0.06,-1.76,9.75
0.01,-0.16,0.02,0.12,-1.85,9.72
0.34,0.12,0.12,0.10,-1.91,9.69
0.42,0.07,0.15,0.02,-1.83,9.74
0.38,-0.00,0.18,0.02,-1.74,9.86
0.15,-0.07,0.22,0.09,-1.71,9.87
0.00,-0.06,0.30,0.12,-1.84,9.68
0.10,0.02,0.34,0.12,-1.86,9.68
0.23,0.09,0.35,0.03,-1.78,9.73
0.12,0.08,0.34,-0.04,-1.72,9.81
-0.39,-0.10,0.34,0.05,-1.79,9.82
-0.42,-0.05,0.34,0.10,-1.86,9.69
-0.35,0.10,0.33,0.09,-1.87,9.61
-0.31,0.24,0.27,-0.00,-1.87,9.62
-0.32,0.15,0.19,-0.05,-1.87,9.80
-0.43,0.09,0.16,0.02,-1.84,9.71
-0.45,0.09,0.17,0.07,-1.84,9.54
-0.36,0.22,0.15,0.08,-1.91,9.45
-0.02,0.47,0.04,-0.04,-1.95,9.69
0.06,0.37,0.01,-0.11,-1.87,9.76
-0.01,0.16,-0.01,-0.08,-1.85,9.74
0.05,0.22,-0.03,0.11,-1.86,9.65
0.13,0.34,-0.04,0.00,-1.90,9.67
0.23,0.30,-0.06,-0.09,-1.93,9.80
0.31,0.15,-0.09,-0.06,-1.90,9.95
0.27,0.04,-0.10,-0.01,-1.81,9.94
-0.01,0.16,-0.07,0.12,-1.83,9.80
0.02,0.33,-0.03,0.06,-1.93,9.84
0.14,0.35,-0.01,-0.04,-1.95,9.93
0.21,0.28,-0.01,-0.02,-1.86,10.00
-0.21,0.25,0.06,0.04,-1.77,9.84
-0.31,0.34,0.08,0.05,-1.91,9.78
-0.20,0.40,0.09,0.01,-2.01,9.78
0.01,0.29,0.13,-0.05,-1.83,9.80
-0.17,0.22,0.16,-0.02,-1.78,9.77
-0.34,0.18,0.17,-0.00,-1.85,9.71
-0.31,0.14,0.17,-0.03,-1.96,9.66
-0.16,0.09,0.20,-0.04,-2.01,9.64
0.05,-0.00,0.20,-0.10,-1.85,9.62
-0.05,-0.06,0.20,-0.06,-1.82,9.64
-0.14,-0.08,0.17,-0.04,-1.85,9.62
-0.14,-0.11,0.14,-0.08,-1.94,9.59
0.17,-0.17,0.13,-0.05,-1.96,9.62
0.25,-0.08,0.12,-0.04,-1.86,9.65
0.14,-0.01,0.07,-0.08,-1.82,9.66
0.04,-0.02,0.03,-0.10,-1.88,9.70
0.14,0.02,-0.02,-0.05,-1.95,9.72
0.19,0.05,-0.03,-0.03,-1.90,9.70
0.12,0.10,-0.04,-0.02,-1.88,9.74
0.04,0.14,-0.06,-0.04,-1.89,9.80
-0.01,0.08,-0.12,-0.03,-1.91,9.87
-0.08,-0.00,-0.12,0.03,-1.89,9.85
-0.15,-0.02,-0.10,0.07,-1.89,9.82
-0.18,-0.01,-0.09,0.06,-1.91,9.82
-0.15,-0.07,-0.11,-0.00,-1.93,9.90
-0.19,-0.15,-0.10,0.01,-1.91,9.89
-0.27,-0.23,-0.08,0.06,-1.92,9.83
-0.32,-0.24,-0.05,0.10,-1.93,9.76
-0.19,-0.10,0.04,0.07,-1.97,9.74
-0.18,-0.12,0.06,0.02,-1.97,9.76
-0.19,-0.12,0.08,0.02,-1.97,9.75
-0.17,-0.12,0.09,0.06,-1.98,9.70
-0.16,-0.06,0.11,0.07,-2.00,9.64
0.07,0.11,0.17,0.07,-2.03,9.66
0.06,0.12,0.19,0.02,-2.03,9.70
0.06,0.12,0.20,-0.06,-2.04,9.72
-0.04,0.10,0.08,0.02,-2.07,9.71
-0.06,0.07,0.13,0.05,-2.07,9.73
-0.13,0.07,0.17,-0.01,-2.13,9.72
-0.01,0.08,0.18,-0.03,-2.14,9.68
0.45,-0.10,0.03,-0.17,-1.79,9.46
0.69,-0.14,0.02,0.02,-1.54,9.40
0.95,-0.08,0.04,0.06,-1.27,9.27
1.16,-0.01,0.08,-0.04,-1.05,9.14
1.48,0.03,0.04,-0.08,-0.93,9.13
2.31,-0.09,-0.00,-0.01,-0.52,9.28
2.79,-0.14,0.03,0.13,-0.48,9.25
3.57,-0.01,0.09,0.18,-0.49,9.26
4.75,0.22,0.16,0.01,-0.19,9.62
5.03,0.14,0.13,-0.06,0.00,9.85
5.00,-0.04,0.15,-0.03,0.25,9.95
4.69,-0.14,0.21,0.14,0.47,9.93
3.57,0.11,0.28,0.18,0.60,9.79
3.14,0.18,0.31,0.03,0.50,9.77
3.02,0.05,0.29,-0.12,0.37,9.78
3.21,-0.17,0.24,-0.08,0.26,9.75
4.06,-0.29,0.26,0.05,0.34,9.60
4.27,-0.26,0.27,0.03,0.44,9.57
4.35,-0.19,0.23,-0.01,0.55,9.64
4.25,-0.14,0.18,-0.01,0.60,9.72
3.87,-0.08,0.15,-0.03,0.59,9.91
3.66,-0.13,0.14,-0.05,0.56,9.95
3.44,-0.15,0.10,-0.06,0.53,10.00
3.15,-0.12,0.05,-0.02,0.48,10.05
2.38,0.06,-0.01,0.05,0.36,10.13
1.99,0.15,-0.04,0.06,0.25,10.21
1.65,0.22,-0.02,0.02,0.12,10.31
1.36,0.23,-0.03,-0.02,0.03,10.40
0.72,0.12,-0.07,0.00,-0.08,10.44
0.37,0.13,-0.06,0.05,-0.10,10.42
-0.05,0.17,-0.03,0.04,-0.14,10.40
-0.39,0.18,-0.01,-0.00,-0.23,10.39
-0.68,0.00,-0.00,-0.05,-0.36,10.30
-0.69,-0.07,0.00,-0.02,-0.34,10.19
-0.75,-0.08,0.01,0.01,-0.30,10.08
-0.84,-0.02,0.02,-0.02,-0.27,9.99
-0.86,-0.09,0.03,-0.11,-0.27,9.88
-0.89,-0.14,0.02,-0.09,-0.19,9.80
-0.97,-0.18,0.03,-0.07,-0.17,9.70
-1.01,-0.16,0.03,-0.07,-0.19,9.59
-0.81,-0.08,0.02,-0.06,-0.26,9.48
-0.59,-0.04,0.01,-0.07,-0.29,9.49
-0.36,-0.05,-0.03,-0.08,-0.28,9.54
-0.20,-0.09,-0.05,-0.07,-0.24,9.59
-0.31,-0.09,-0.04,-0.01,-0.12,9.68
-0.46,-0.08,-0.03,0.00,-0.12,9.71
-0.58,-0.05,-0.02,0.01,-0.15,9.75
-0.65,-0.08,-0.04,0.02,-0.18,9.78
-0.53,-0.09,-0.00,0.07,-0.19,9.78
-0.48,-0.08,0.02,0.10,-0.16,9.78
-0.48,-0.08,0.03,0.10,-0.12,9.80
-0.53,-0.08,0.03,0.09,-0.09,9.83
-0.63,-0.14,0.06,0.09,-0.05,9.84
-0.67,-0.13,0.07,0.10,-0.06,9.80
-0.63,-0.09,0.07,0.11,-0.09,9.77
-0.54,-0.08,0.07,0.10,-0.12,9.76
-0.20,-0.04,0.08,0.07,-0.16,9.79
-0.01,-0.03,0.08,0.06,-0.15,9.81
0.12,0.02,0.08,0.07,-0.12,9.84
0.14,0.07,0.08,0.06,-0.09,9.86
0.03,0.10,0.07,0.02,-0.14,9.90
0.08,0.06,0.06,0.02,-0.19,9.90
0.12,0.07,0.04,0.03,-0.20,9.89
0.12,0.11,0.04,0.03,-0.17,9.90
0.02,0.11,0.05,-0.00,-0.20,9.89
-0.01,0.09,0.04,-0.00,-0.23,9.87
0.02,0.07,0.05,0.00,-0.24,9.84
0.09,0.06,0.07,0.02,-0.23,9.80
0.06,0.08,0.07,0.01,-0.20,9.76
0.02,0.08,0.08,-0.01,-0.21,9.75
0.03,0.05,0.08,-0.02,-0.23,9.73
0.06,0.04,0.07,-0.01,-0.23,9.70
0.13,0.07,0.08,-0.00,-0.21,9.67
0.16,0.10,0.07,-0.01,-0.22,9.67
0.19,0.08,0.07,-0.03,-0.22,9.70
0.21,0.05,0.08,-0.04,-0.21,9.72
0.19,0.04,0.10,-0.02,-0.19,9.73
0.17,0.06,0.09,-0.02,-0.20,9.73
0.19,0.07,0.08,-0.04,-0.22,9.75
0.25,0.06,0.08,-0.04,-0.22,9.78
0.37,-0.02,0.04,-0.02,-0.16,9.82
0.34,-0.01,0.05,-0.01,-0.11,9.85
0.23,0.02,0.03,-0.01,-0.08,9.87
0.11,-0.01,0.01,-0.02,-0.08,9.89
0.03,-0.08,0.04,-0.00,-0.13,9.88
0.08,-0.07,0.03,0.02,-0.13,9.86
0.12,-0.02,0.03,0.02,-0.10,9.86
0.10,-0.00,0.03,0.02,-0.06,9.88
-0.05,-0.09,0.02,0.01,-0.06,9.89
-0.09,-0.10,0.03,0.03,-0.08,9.86
-0.07,-0.07,0.02,0.05,-0.09,9.84
-0.06,-0.03,0.03,0.05,-0.09,9.82
-0.06,-0.01,0.06,0.02,-0.10,9.84
-0.09,-0.04,0.05,0.02,-0.11,9.84
-0.11,-0.06,0.05,0.03,-0.12,9.82
-0.11,-0.02,0.06,0.04,-0.14,9.80
-0.11,0.05,0.07,0.02,-0.18,9.80
-0.12,0.03,0.09,0.01,-0.18,9.81
-0.14,0.01,0.08,0.01,-0.18,9.81
-0.19,-0.01,0.05,0.02,-0.20,9.76
-0.18,0.01,0.07,0.02,-0.23,9.75
-0.10,0.04,0.08,0.02,-0.24,9.75
-0.07,0.03,0.05,0.01,-0.22,9.76
-0.10,0.02,0.04,0.00,-0.19,9.76
-0.11,0.02,0.05,0.01,-0.20,9.76
-0.06,0.02,0.05,0.02,-0.23,9.74
-0.01,0.05,0.05,0.01,-0.22,9.76
0.02,0.05,0.06,0.00,-0.20,9.77
-0.00,0.02,0.02,0.01,-0.18,9.79
-0.02,0.03,0.02,0.01,-0.18,9.79
-0.00,0.03,0.02,0.01,-0.18,9.79
0.01,0.03,0.03,0.01,-0.18,9.80
0.04,0.02,0.05,0.00,-0.15,9.82
0.02,0.03,0.04,0.00,-0.16,9.82
0.03,0.02,0.04,0.01,-0.15,9.82
0.05,0.01,0.06,0.00,-0.15,9.82
0.08,0.01,0.06,-0.00,-0.15,9.82
0.08,0.01,0.06,-0.00,-0.13,9.82
0.07,-0.02,0.06,-0.00,-0.12,9.83
0.06,-0.03,0.07,-0.01,-0.12,9.82
0.04,0.02,0.07,0.00,-0.12,9.83
0.05,0.02,0.07,0.00,-0.12,9.83
0.04,-0.02,0.06,0.00,-0.12,9.82
0.02,-0.04,0.03,-0.00,-0.12,9.82
0.00,-0.04,0.07,-0.01,-0.14,9.81
0.01,-0.05,0.07,-0.01,-0.15,9.81
0.00,-0.06,0.06,-0.01,-0.15,9.80
-0.00,-0.07,0.06,-0.01,-0.15,9.80
0.00,-0.07,0.06,-0.00,-0.16,9.80
-0.04,-0.04,0.03,-0.00,-0.15,9.80
-0.04,-0.04,0.05,0.00,-0.16,9.80
-0.07,-0.05,0.05,0.01,-0.17,9.79
-0.03,-0.03,0.01,0.01,-0.18,9.79
-0.03,-0.03,0.01,0.01,-0.18,9.79
-0.04,-0.04,0.01,0.01,-0.17,9.79
-0.05,-0.04,0.02,0.01,-0.18,9.80
-0.06,-0.03,0.01,0.03,-0.18,9.78
-0.06,-0.04,0.03,0.03,-0.17,9.79
-0.06,-0.02,0.05,0.03,-0.16,9.79
-0.07,-0.01,0.05,0.03,-0.16,9.79
-0.07,-0.02,0.04,0.03,-0.16,9.79
-0.05,-0.02,0.04,0.03,-0.16,9.80
-0.03,-0.03,0.04,0.03,-0.16,9.80
-0.03,-0.03,0.02,0.03,-0.15,9.81
-0.01,-0.01,0.06,0.03,-0.15,9.81
-0.02,-0.03,0.06,0.03,-0.15,9.81
-0.02,-0.01,0.04,0.02,-0.16,9.81
-0.02,0.01,0.04,0.02,-0.16,9.81
-0.00,0.00,0.08,0.01,-0.15,9.81
-0.01,-0.01,0.07,0.00,-0.16,9.82
-0.02,0.01,0.04,0.01,-0.17,9.82
0.01,0.06,0.04,0.01,-0.17,9.81
0.06,0.05,0.06,0.01,-0.15,9.81
0.02,0.04,0.05,0.00,-0.15,9.81
-0.01,0.02,0.05,0.00,-0.16,9.80
-0.00,0.02,0.06,0.00,-0.16,9.80
0.03,0.02,0.04,-0.01,-0.15,9.80
0.02,0.01,0.04,-0.01,-0.15,9.80
0.02,0.02,0.03,-0.01,-0.16,9.80
0.03,0.00,0.02,-0.01,-0.16,9.80
-0.01,0.03,-0.02,-0.03,-0.17,9.80
-0.02,0.02,-0.05,-0.04,-0.19,9.81
