angleSpeedx_y_z;lineAccx_y_z
-0.01,0.00,0.06,0.05,-0.16,9.79
0.02,-0.02,0.06,0.06,-0.16,9.79
0.04,-0.02,0.05,0.08,-0.16,9.80
-0.01,-0.01,0.04,0.05,-0.16,9.77
0.01,0.01,0.03,0.05,-0.16,9.79
0.01,0.01,0.05,0.06,-0.15,9.81
-0.01,0.00,0.03,0.05,-0.13,9.82
-0.03,-0.01,0.03,0.06,-0.15,9.80
-0.01,0.02,0.02,0.07,-0.16,9.80
-0.01,0.01,-0.00,0.07,-0.15,9.81
0.00,-0.01,0.01,0.06,-0.13,9.82
-0.02,-0.02,0.02,0.07,-0.15,9.82
-0.03,-0.03,0.03,0.08,-0.15,9.82
-0.02,-0.02,0.03,0.07,-0.15,9.81
0.01,-0.01,0.02,0.07,-0.16,9.81
-0.01,-0.00,0.02,0.08,-0.16,9.81
-0.02,-0.02,0.03,0.08,-0.16,9.80
-0.02,-0.04,0.04,0.08,-0.16,9.80
0.02,-0.03,0.04,0.08,-0.16,9.80
0.01,-0.03,0.05,0.09,-0.15,9.80
0.02,-0.04,0.06,0.08,-0.17,9.79
0.04,-0.04,0.07,0.08,-0.18,9.80
0.06,-0.01,0.06,0.08,-0.17,9.80
0.05,-0.02,0.05,0.08,-0.14,9.81
-0.01,0.01,0.05,0.08,-0.14,9.82
-0.03,0.02,0.04,0.08,-0.16,9.81
0.01,0.02,0.05,0.07,-0.18,9.81
0.01,0.00,0.03,0.07,-0.15,9.81
-0.03,0.01,0.02,0.08,-0.13,9.82
-0.05,0.02,0.05,0.07,-0.14,9.81
-0.04,-0.01,0.06,0.07,-0.17,9.80
0.02,0.00,0.04,0.08,-0.16,9.79
0.01,-0.01,0.05,0.08,-0.15,9.79
-0.04,-0.02,0.05,0.07,-0.16,9.80
-0.03,-0.03,0.03,0.07,-0.18,9.80
0.03,-0.03,0.04,0.09,-0.17,9.78
0.02,-0.03,0.03,0.09,-0.16,9.78
-0.01,0.02,0.03,0.08,-0.17,9.80
-0.00,0.00,0.04,0.07,-0.18,9.81
0.06,0.01,0.06,0.08,-0.17,9.80
0.03,0.02,0.06,0.08,-0.16,9.79
-0.00,0.05,0.05,0.08,-0.17,9.81
0.00,0.05,0.04,0.07,-0.18,9.82
0.04,-0.01,0.05,0.07,-0.16,9.82
0.01,-0.02,0.05,0.08,-0.14,9.81
-0.03,-0.01,0.05,0.08,-0.15,9.81
-0.02,-0.00,0.06,0.07,-0.16,9.81
0.01,-0.02,0.05,0.07,-0.15,9.82
-0.00,-0.02,0.05,0.07,-0.14,9.81
-0.02,-0.02,0.04,0.07,-0.14,9.79
-0.02,-0.00,0.05,0.07,-0.16,9.79
0.02,-0.02,0.03,0.06,-0.14,9.81
-0.01,-0.02,0.03,0.06,-0.14,9.81
-0.04,-0.01,0.05,0.06,-0.15,9.80
-0.06,-0.02,0.06,0.07,-0.16,9.79
0.01,-0.01,0.04,0.07,-0.16,9.80
-0.00,0.00,0.04,0.07,-0.15,9.81
-0.02,0.01,0.06,0.06,-0.15,9.81
-0.04,-0.00,0.04,0.07,-0.16,9.81
-0.03,0.01,0.04,0.07,-0.16,9.80
-0.02,-0.02,0.04,0.07,-0.16,9.81
-0.02,-0.04,0.04,0.08,-0.15,9.81
0.00,-0.03,0.05,0.08,-0.16,9.80
-0.00,-0.03,0.05,0.08,-0.16,9.81
0.00,-0.07,0.05,0.07,-0.16,9.79
-0.01,-0.06,0.04,0.09,-0.15,9.78
0.01,-0.03,0.04,0.09,-0.16,9.79
0.02,0.01,0.03,0.07,-0.15,9.79
0.04,0.01,0.03,0.06,-0.15,9.78
0.10,0.00,0.04,0.08,-0.16,9.76
0.29,-0.03,0.04,0.07,-0.14,9.76
0.95,-0.10,0.04,0.07,0.33,9.44
1.10,-0.02,0.05,0.16,0.64,9.40
0.94,0.08,0.07,0.18,0.69,9.43
0.68,0.14,0.08,0.16,0.49,9.65
0.59,0.17,0.08,0.07,0.22,9.92
0.72,-0.14,0.09,-0.03,0.04,10.09
0.77,-0.24,0.06,0.08,0.09,10.11
0.67,-0.11,0.04,0.19,0.16,10.21
-0.21,-0.04,0.07,-0.03,0.12,10.26
-0.39,-0.23,0.03,-0.04,0.04,10.14
-0.20,-0.35,0.04,0.05,0.09,9.85
0.09,-0.26,0.06,0.17,0.28,9.53
0.38,0.17,0.10,0.15,0.49,9.44
0.54,0.18,0.09,0.02,0.50,9.55
0.70,0.03,0.08,0.00,0.54,9.63
0.74,-0.05,0.09,0.08,0.59,9.64
0.36,0.13,0.10,0.13,0.41,9.69
0.33,0.19,0.10,0.04,0.21,9.84
0.57,0.10,0.07,-0.03,0.14,9.97
0.85,-0.10,0.07,-0.02,0.30,9.97
0.80,-0.14,0.06,0.19,0.62,9.84
0.58,-0.01,0.05,0.14,0.64,9.82
0.47,0.01,0.05,0.04,0.62,9.85
0.55,-0.09,0.06,0.02,0.63,9.86
0.88,-0.19,0.08,0.15,0.81,9.70
0.83,-0.07,0.09,0.18,0.86,9.69
0.73,0.06,0.10,0.11,0.85,9.76
0.65,0.07,0.11,0.05,0.81,9.87
0.51,-0.03,0.10,0.05,0.74,9.96
0.38,-0.04,0.09,0.10,0.72,9.92
0.29,0.05,0.10,0.11,0.69,9.91
0.28,0.11,0.09,0.07,0.66,9.89
0.51,0.00,0.08,0.04,0.77,9.83
0.58,-0.04,0.08,0.09,0.85,9.77
0.64,-0.02,0.09,0.11,0.92,9.72
0.71,0.01,0.09,0.11,0.98,9.69
0.93,0.00,0.09,0.09,1.09,9.69
0.97,-0.01,0.09,0.11,1.12,9.73
0.93,0.02,0.10,0.13,1.13,9.77
0.81,0.07,0.11,0.11,1.11,9.82
0.69,0.05,0.12,0.06,1.03,9.91
0.68,-0.01,0.09,0.06,1.02,9.93
0.66,-0.01,0.07,0.09,1.03,9.93
0.63,0.02,0.09,0.11,1.07,9.90
0.76,0.05,0.09,0.10,1.20,9.80
0.91,0.05,0.09,0.10,1.31,9.73
1.07,0.04,0.10,0.14,1.41,9.69
1.19,0.05,0.13,0.17,1.50,9.68
1.12,0.19,0.17,0.18,1.56,9.70
1.06,0.26,0.19,0.16,1.53,9.74
1.01,0.31,0.19,0.11,1.48,9.81
1.02,0.30,0.19,0.08,1.42,9.88
1.12,0.20,0.19,0.11,1.42,9.94
1.16,0.23,0.19,0.14,1.43,9.96
1.12,0.26,0.21,0.08,1.45,9.92
1.12,0.22,0.19,0.04,1.50,9.87
1.46,0.14,0.21,0.09,1.64,9.75
1.59,0.12,0.19,0.10,1.75,9.68
1.73,0.11,0.18,0.11,1.86,9.68
1.81,0.12,0.19,0.10,1.95,9.69
1.61,0.13,0.23,0.16,1.99,9.74
1.44,0.21,0.27,0.17,1.96,9.75
1.38,0.30,0.28,0.13,1.93,9.75
1.32,0.36,0.30,0.11,1.87,9.83
1.27,0.32,0.32,0.01,1.79,9.92
1.37,0.23,0.31,0.02,1.84,9.87
1.57,0.09,0.28,0.06,1.92,9.79
1.81,0.02,0.27,0.05,2.02,9.72
1.89,0.04,0.32,0.12,2.22,9.65
1.84,0.15,0.32,0.11,2.31,9.64
1.76,0.20,0.29,0.08,2.37,9.62
1.62,0.22,0.31,0.05,2.39,9.67
1.29,0.25,0.32,0.03,2.31,9.82
1.11,0.18,0.31,0.01,2.22,9.85
1.02,0.10,0.29,0.04,2.11,9.89
1.08,0.09,0.27,0.01,2.06,9.87
1.12,0.11,0.23,-0.02,2.09,9.91
0.94,0.12,0.19,-0.00,2.09,9.95
0.83,0.14,0.15,0.02,2.11,9.97
0.80,0.17,0.13,0.02,2.14,9.97
0.67,0.18,0.12,0.02,2.26,9.91
0.55,0.21,0.11,0.08,2.30,9.96
0.40,0.23,0.10,0.06,2.30,9.96
0.21,0.23,0.10,0.03,2.24,9.94
0.12,0.25,0.09,0.07,2.15,9.95
0.15,0.22,0.14,0.10,2.16,9.93
-0.01,0.21,0.16,0.16,2.16,9.97
-0.13,0.27,0.18,0.22,2.10,9.95
-0.12,0.40,0.24,0.17,2.01,9.94
-0.07,0.42,0.30,0.20,2.04,9.97
-0.09,0.47,0.31,0.16,2.11,9.94
-0.19,0.53,0.33,0.13,2.14,9.88
-0.32,0.64,0.40,0.23,2.11,9.85
-0.34,0.73,0.41,0.19,2.10,9.77
-0.31,0.79,0.40,0.14,2.11,9.74
-0.22,0.91,0.40,0.16,2.09,9.77
-0.25,0.94,0.38,0.11,2.08,9.87
-0.28,0.87,0.40,0.05,2.04,9.86
-0.31,0.71,0.36,0.03,2.01,9.85
-0.10,0.58,0.33,0.14,1.99,9.87
-0.14,0.51,0.31,0.08,2.03,9.77
-0.15,0.43,0.33,0.11,2.04,9.78
-0.14,0.37,0.35,0.07,2.00,9.77
-0.11,0.30,0.33,0.04,2.00,9.81
-0.10,0.27,0.34,0.06,2.00,9.85
-0.07,0.29,0.33,0.02,1.98,9.79
-0.03,0.32,0.35,0.02,1.96,9.76
0.08,0.35,0.34,-0.00,1.94,9.74
0.11,0.48,0.35,0.01,1.91,9.81
0.15,0.45,0.38,-0.08,1.91,9.78
0.25,0.35,0.38,-0.14,1.90,9.74
0.35,0.23,0.37,-0.09,1.90,9.74
0.40,0.21,0.37,-0.05,1.93,9.77
0.35,0.13,0.38,-0.11,1.95,9.73
0.46,0.04,0.39,-0.14,1.94,9.71
0.54,-0.05,0.39,-0.02,1.93,9.78
0.48,-0.09,0.42,0.04,1.96,9.83
0.38,-0.12,0.46,-0.06,1.91,9.66
0.48,-0.10,0.49,0.03,1.87,9.76
0.59,0.06,0.53,0.09,1.91,9.85
0.36,0.08,0.55,0.02,1.95,9.79
0.37,0.19,0.56,0.09,1.87,9.81
0.42,0.37,0.55,0.09,1.86,9.78
0.41,0.49,0.55,0.10,1.87,9.82
0.28,0.64,0.53,0.03,1.90,9.93
0.18,0.63,0.49,-0.04,1.87,9.98
0.09,0.50,0.45,-0.03,1.84,9.92
0.20,0.38,0.42,0.02,1.81,9.93
-0.04,0.21,0.30,0.01,1.87,10.05
-0.08,-0.03,0.25,-0.11,1.83,10.03
-0.12,-0.35,0.26,-0.06,1.74,10.08
0.07,-0.54,0.23,0.00,1.76,10.08
0.04,-0.77,0.24,0.06,1.93,10.03
-0.16,-0.79,0.21,0.04,1.91,10.10
-0.20,-0.77,0.21,-0.05,1.84,10.03
-0.15,-0.85,0.24,0.04,1.74,9.99
-0.13,-0.63,0.36,0.14,1.84,9.95
-0.37,-0.43,0.39,0.08,1.78,9.89
-0.29,-0.20,0.39,-0.04,1.70,9.90
-0.11,-0.00,0.39,-0.06,1.67,9.98
-0.18,-0.07,0.43,0.05,1.77,9.91
-0.26,-0.06,0.49,0.09,1.72,9.70
-0.09,0.01,0.56,0.07,1.69,9.65
0.02,0.04,0.56,-0.02,1.75,9.59
0.23,-0.24,0.56,0.04,1.89,9.77
0.09,-0.30,0.59,-0.01,1.90,9.78
-0.05,-0.46,0.59,0.03,1.79,9.79
-0.01,-0.55,0.60,0.09,1.70,9.79
0.30,-0.35,0.69,0.10,1.89,9.79
-0.02,-0.30,0.68,0.04,1.91,9.88
-0.20,-0.26,0.64,-0.00,1.84,9.83
-0.24,-0.24,0.60,0.05,1.75,9.81
-0.30,0.04,0.55,0.07,1.75,9.73
-0.26,0.08,0.52,0.09,1.77,9.74
-0.27,0.08,0.53,0.11,1.80,9.71
-0.19,0.13,0.51,0.10,1.85,9.72
-0.41,0.22,0.41,-0.03,1.88,9.76
-0.64,0.13,0.36,0.04,1.69,9.85
-0.65,0.10,0.35,0.07,1.54,9.91
-0.51,0.05,0.39,-0.00,1.43,9.85
-0.37,-0.16,0.38,0.04,1.36,9.93
-0.29,-0.11,0.34,-0.17,1.42,9.84
-0.32,-0.35,0.24,-0.25,1.41,9.79
-0.13,-0.45,0.13,-0.15,1.44,9.88
0.05,-0.48,0.20,0.10,1.63,9.96
-0.03,-0.49,0.25,-0.02,1.69,9.91
-0.06,-0.58,0.31,0.04,1.69,9.82
0.11,-0.46,0.33,0.13,1.69,9.91
0.16,0.03,0.35,-0.06,1.88,9.98
-0.13,-0.06,0.33,0.01,1.78,10.14
-0.33,-0.04,0.35,0.08,1.55,10.18
-0.29,0.02,0.45,0.01,1.37,9.99
0.25,0.06,0.46,0.09,1.49,9.83
0.39,0.14,0.47,-0.02,1.61,9.69
0.33,0.04,0.43,-0.04,1.73,9.73
0.10,-0.09,0.43,0.01,1.80,9.86
-0.04,-0.66,0.43,-0.07,1.58,9.62
0.11,-0.89,0.45,0.05,1.55,9.57
0.15,-1.02,0.40,0.09,1.60,9.54
0.13,-1.02,0.42,0.04,1.71,9.52
-0.19,-1.09,0.39,-0.01,1.61,9.52
-0.05,-1.08,0.43,0.06,1.46,9.44
0.32,-1.03,0.45,0.07,1.41,9.34
0.61,-0.92,0.49,0.11,1.51,9.30
0.82,-0.45,0.54,0.11,1.73,9.03
0.94,-0.24,0.55,0.02,1.70,8.85
1.12,0.09,0.47,0.27,1.65,8.90
1.37,0.61,0.50,0.45,1.73,9.03
1.09,1.16,0.63,0.20,1.83,9.20
1.20,1.16,0.67,0.37,1.65,9.46
1.33,1.39,0.68,0.45,1.63,9.74
1.38,1.69,0.71,0.14,1.80,9.69
0.74,1.35,0.64,0.23,1.71,10.22
0.54,1.24,0.67,0.40,1.56,10.48
0.69,1.16,0.68,-0.02,1.52,10.35
0.77,0.72,0.68,-0.14,1.62,10.33
0.39,-0.00,0.59,-0.02,1.85,10.63
-0.03,-0.34,0.60,-0.09,1.73,10.45
-0.07,-0.59,0.58,0.04,1.59,10.49
0.14,-0.71,0.64,0.07,1.60,10.42
0.15,-0.79,0.58,-0.16,1.81,10.31
-0.18,-0.75,0.51,-0.07,1.72,10.42
-0.38,-0.64,0.51,-0.07,1.52,10.36
-0.35,-0.55,0.56,-0.02,1.37,10.15
0.13,-0.26,0.60,0.09,1.45,9.98
0.28,0.66,0.59,-0.09,1.71,9.87
0.09,0.82,0.54,-0.15,1.68,9.85
0.22,0.83,0.50,-0.06,1.60,9.87
0.80,0.79,0.57,-0.04,1.75,9.63
0.83,0.60,0.57,-0.10,1.81,9.42
0.84,0.50,0.57,0.10,1.84,9.53
0.69,0.55,0.61,-0.15,2.07,9.61
0.47,0.02,0.58,-0.29,2.03,9.66
0.28,-0.49,0.54,-0.06,1.90,9.91
0.07,-0.68,0.57,0.07,1.82,9.96
-0.15,-0.83,0.65,-0.07,1.74,9.92
-0.32,-1.09,0.65,-0.20,1.65,9.86
-0.22,-1.35,0.61,-0.02,1.77,9.92
-0.38,-1.20,0.59,-0.02,1.91,9.77
-0.68,-1.06,0.61,-0.09,1.89,9.62
-0.79,-0.48,0.62,0.18,1.67,9.64
-0.60,-0.02,0.63,0.15,1.73,9.53
-0.53,0.34,0.65,0.01,1.81,9.48
-0.47,0.75,0.58,0.03,1.78,9.79
-0.58,0.82,0.54,0.10,1.72,9.96
-0.53,0.82,0.55,-0.04,1.58,9.87
-0.26,0.66,0.51,-0.01,1.48,9.90
0.18,0.55,0.50,0.16,1.55,10.03
0.40,0.43,0.56,0.11,1.73,10.06
0.59,0.08,0.58,0.16,2.02,10.06
0.67,0.05,0.58,0.12,2.10,10.07
0.63,-0.09,0.55,-0.02,2.22,9.97
0.50,-0.39,0.64,0.34,2.18,10.25
0.34,-0.32,0.73,0.24,2.23,10.12
0.21,-0.27,0.82,0.20,2.22,10.08
0.02,-0.13,0.84,0.31,2.15,10.23
-0.39,0.56,0.91,0.04,2.22,10.12
-0.89,0.63,0.91,0.15,2.13,10.09
-0.99,0.76,0.91,0.22,1.96,10.00
-0.91,0.92,0.93,0.17,1.90,9.76
-0.76,1.27,0.93,0.11,2.06,9.48
-1.00,1.29,0.96,0.21,2.06,9.42
-1.02,1.41,0.92,0.11,2.06,9.42
-0.96,1.44,0.88,-0.02,2.08,9.32
-0.39,0.75,0.82,-0.12,2.02,9.20
-0.18,0.59,0.81,0.01,2.07,9.29
-0.16,0.44,0.80,-0.03,2.08,9.18
0.04,0.18,0.80,-0.27,1.98,8.98
0.61,-0.03,0.69,0.03,1.87,9.29
0.84,0.10,0.67,-0.00,1.98,9.38
0.79,0.12,0.66,-0.14,2.06,9.56
0.60,0.06,0.68,-0.24,2.11,9.75
0.80,-0.08,0.65,-0.21,2.08,10.15
0.80,-0.08,0.66,-0.23,2.17,10.21
0.62,-0.06,0.66,-0.10,2.22,10.25
0.33,0.09,0.67,-0.02,2.19,10.30
-0.05,0.69,0.59,-0.11,2.01,10.23
0.04,0.84,0.61,-0.12,2.04,10.32
-0.04,0.77,0.68,-0.08,2.08,10.39
-0.27,0.64,0.74,0.11,2.05,10.38
-0.57,0.97,0.75,0.02,1.79,9.93
-0.27,0.99,0.73,-0.14,1.72,9.84
0.23,0.87,0.70,-0.16,1.89,10.05
0.39,0.41,0.77,0.04,2.23,10.09
-0.28,-0.38,0.87,-0.03,2.06,9.72
-0.10,-0.57,0.87,-0.08,1.77,9.34
0.66,-0.48,0.79,-0.11,1.72,9.41
1.09,-0.38,0.73,-0.08,2.06,9.63
0.45,-0.79,0.72,-0.13,2.24,9.92
0.07,-0.78,0.72,0.07,1.93,9.94
0.39,-0.42,0.70,-0.06,1.72,9.67
0.95,-0.12,0.61,-0.26,1.76,9.50
1.23,0.06,0.50,-0.06,2.10,9.71
1.14,0.14,0.45,0.00,2.14,9.62
1.17,0.26,0.46,0.00,2.07,9.54
1.21,0.39,0.44,0.06,2.03,9.56
1.28,0.79,0.43,0.04,2.06,9.98
1.11,0.65,0.49,0.11,2.14,10.19
0.95,0.32,0.57,-0.01,2.17,10.22
0.88,-0.03,0.56,0.13,2.16,10.05
0.49,0.23,0.61,0.00,2.07,9.62
0.29,0.15,0.65,-0.10,2.00,9.48
0.43,-0.05,0.64,0.24,1.93,9.77
0.62,-0.06,0.73,0.46,2.01,9.79
0.51,0.06,0.84,-0.07,2.27,9.26
0.25,0.19,0.73,0.17,2.12,9.32
0.17,0.46,0.77,0.14,1.94,9.13
0.76,0.72,0.83,0.10,1.87,9.03
1.56,0.89,0.94,0.37,2.15,9.27
1.40,1.29,0.94,0.31,2.15,9.33
1.08,1.85,0.93,0.19,1.99,9.46
1.15,2.17,0.90,-0.04,1.81,9.61
2.17,1.61,0.84,-0.06,2.03,10.46
2.07,1.10,0.84,-0.15,2.28,10.38
1.48,0.60,0.78,-0.18,2.27,10.21
1.31,0.44,0.73,-0.12,2.05,10.15
2.00,0.35,0.79,0.03,2.17,10.52
1.67,0.21,0.84,-0.04,2.36,10.66
1.02,0.08,0.78,-0.22,2.35,10.57
0.43,-0.11,0.80,-0.26,2.13,10.36
0.80,0.06,0.74,-0.24,1.88,10.23
0.97,-0.11,0.78,-0.19,2.05,10.08
1.01,-0.20,0.83,-0.02,2.20,10.32
0.46,-0.05,0.88,-0.03,2.24,10.36
-0.21,0.21,0.72,-0.50,1.85,10.19
0.09,0.19,0.69,-0.41,1.87,10.27
0.63,0.05,0.72,-0.28,2.19,10.24
0.44,-0.13,0.71,-0.05,2.36,10.27
-0.64,0.35,0.67,-0.15,2.09,9.80
-0.56,0.43,0.66,-0.24,1.85,9.80
-0.07,0.40,0.64,-0.20,1.89,9.94
0.14,0.17,0.62,-0.11,2.14,9.91
-0.66,0.04,0.62,0.19,1.88,9.67
-0.73,0.26,0.68,0.05,1.62,9.38
0.11,0.40,0.66,0.01,1.66,9.37
0.75,0.40,0.68,0.14,2.01,9.76
-0.32,0.25,0.68,-0.03,2.24,9.82
-0.51,0.19,0.65,-0.03,1.91,9.72
0.02,0.16,0.70,-0.08,1.84,9.54
0.60,-0.05,0.75,-0.17,2.01,9.34
0.37,-0.38,0.73,0.06,2.14,9.48
-0.05,-0.38,0.75,-0.04,1.97,9.25
0.00,-0.32,0.78,-0.06,1.80,9.21
0.41,-0.36,0.82,-0.04,1.76,9.18
0.75,-0.36,0.89,0.02,1.99,9.66
0.45,-0.33,0.93,-0.05,2.01,9.64
0.32,-0.21,0.90,-0.08,2.03,9.85
0.18,-0.06,0.90,0.03,2.05,9.91
0.10,0.54,0.93,0.09,1.96,10.00
-0.02,1.05,0.94,0.21,1.84,10.09
0.07,1.43,0.92,0.03,1.80,10.16
0.27,1.50,0.94,-0.07,1.78,10.44
-0.13,0.69,0.70,-0.47,1.74,10.68
-0.23,-0.07,0.69,-0.32,1.53,10.66
-0.19,-0.82,0.76,-0.09,1.44,10.38
0.30,-1.09,0.81,0.13,1.55,10.24
0.30,-0.72,0.83,-0.39,2.17,9.93
-0.33,-0.88,0.77,-0.37,2.03,10.30
-0.58,-0.93,0.67,-0.17,1.87,10.58
-0.45,-0.79,0.67,-0.19,1.89,10.31
-0.57,-0.72,0.73,-0.27,1.90,9.84
-0.53,-0.54,0.75,-0.27,1.84,9.72
-0.42,-0.42,0.66,-0.17,1.80,9.79
-0.52,-0.43,0.63,-0.17,1.83,9.70
-0.69,-0.56,0.74,0.15,1.67,9.65
-0.69,-0.27,0.82,0.07,1.64,9.34
-0.51,0.02,0.85,0.03,1.68,9.16
-0.14,0.25,0.90,0.07,1.86,9.17
-0.53,0.83,0.76,0.06,2.24,9.39
-1.21,0.95,0.78,0.03,1.99,9.31
-1.28,1.00,0.73,0.14,1.60,9.36
-0.63,1.07,0.87,0.25,1.54,9.44
-0.32,1.07,0.95,0.14,1.63,9.46
-0.83,1.07,0.92,0.16,1.60,9.77
-1.16,1.04,0.89,-0.02,1.45,9.79
-1.53,0.84,0.78,-0.16,1.19,9.85
-1.07,0.05,0.81,-0.17,0.88,9.98
-0.53,-0.71,0.80,-0.38,0.97,9.94
0.20,-1.37,0.75,-0.28,1.22,9.84
0.54,-1.75,0.82,-0.25,1.60,9.60
0.09,-1.47,0.83,-0.07,1.80,9.35
-0.16,-0.92,0.82,0.21,1.62,9.48
-0.16,-0.32,0.86,0.19,1.51,9.61
-0.16,0.21,0.93,0.06,1.51,9.77
-0.17,1.10,0.88,-0.14,1.27,10.29
0.13,1.38,0.91,-0.21,1.31,10.61
0.15,1.42,0.86,-0.23,1.39,10.98
-0.29,1.11,0.80,-0.42,1.29,10.87
-0.05,0.16,0.64,-0.25,1.04,10.64
0.22,-0.18,0.61,-0.15,1.32,10.50
0.31,-0.59,0.60,-0.40,1.70,10.12
0.04,-1.26,0.59,-0.41,1.80,9.96
-0.39,-2.21,0.68,-0.08,1.51,10.11
-0.18,-2.46,0.73,-0.15,1.34,9.86
-0.01,-2.72,0.80,-0.08,1.15,9.64
0.69,-2.63,0.83,-0.25,1.21,9.22
1.07,-1.64,0.77,0.12,1.50,9.20
0.67,-0.98,0.78,0.05,1.52,8.99
0.34,-0.46,0.80,-0.01,1.24,8.88
0.49,-0.03,0.68,0.00,0.92,8.92
2.18,0.52,0.70,-0.01,1.21,8.87
2.53,0.54,0.68,-0.04,1.67,8.96
2.05,0.57,0.66,0.14,1.85,9.07
1.46,0.68,0.63,0.40,1.62,9.17
1.94,1.51,0.63,0.23,1.43,9.55
1.92,1.49,0.64,0.01,1.60,9.99
1.74,1.20,0.56,-0.18,1.76,10.61
1.06,0.57,0.53,-0.36,1.70,10.81
0.20,-0.91,0.42,-0.05,1.21,10.99
0.32,-1.02,0.45,-0.09,1.17,10.63
0.26,-1.36,0.46,-0.08,1.34,10.32
0.24,-1.57,0.48,-0.03,1.69,10.34
-0.89,-1.64,0.61,-0.05,1.75,9.95
-1.30,-1.39,0.57,-0.12,1.52,9.73
-1.44,-0.92,0.58,-0.01,1.26,9.61
-1.03,-0.49,0.56,-0.08,1.32,9.70
-1.01,0.19,0.60,0.15,1.48,10.51
-1.38,0.67,0.67,0.14,1.56,10.74
-1.95,1.04,0.68,0.03,1.57,10.77
-2.57,1.19,0.66,-0.01,1.38,10.82
-2.38,0.98,0.56,-0.17,1.10,10.28
-2.09,0.42,0.55,0.24,1.09,10.10
-1.63,0.28,0.56,0.31,1.34,9.87
-1.36,0.20,0.66,0.01,1.56,9.40
-1.92,-0.17,0.52,-0.04,1.35,9.41
-1.64,-0.15,0.52,-0.01,1.20,9.38
-1.15,-0.10,0.50,0.32,1.18,9.77
-0.82,0.10,0.52,0.18,1.46,9.76
-0.97,-0.04,0.54,0.11,1.41,9.36
-1.14,0.62,0.51,0.42,1.21,9.62
-1.42,1.19,0.57,-0.02,1.14,9.20
-1.35,1.05,0.48,0.13,1.01,9.33
0.56,1.20,0.53,-0.36,1.29,9.37
0.43,1.01,0.43,-0.28,1.72,9.57
-0.62,1.00,0.40,0.11,1.77,10.18
-1.65,1.15,0.43,0.13,1.47,10.13
-0.75,0.42,0.50,-0.05,1.28,9.50
-0.18,0.20,0.55,0.12,1.48,9.56
-0.58,0.30,0.57,-0.15,1.73,9.68
-1.66,0.32,0.53,-0.14,1.58,9.97
-1.73,-0.27,0.62,-0.02,0.88,9.90
-0.76,-0.24,0.67,-0.08,1.16,9.74
-0.60,0.00,0.61,-0.51,1.54,9.37
-1.38,-0.06,0.45,-0.59,1.45,9.01
-0.84,0.04,0.39,0.02,0.87,9.36
0.03,-0.18,0.46,0.04,1.00,9.36
0.70,-0.61,0.53,-0.15,1.45,9.44
0.56,-1.10,0.61,-0.36,1.70,9.22
-0.11,-0.88,0.50,-0.03,1.14,9.46
0.17,-0.38,0.45,-0.15,0.91,9.21
1.30,-0.39,0.48,-0.04,1.00,9.42
2.05,-0.39,0.59,0.19,1.32,9.86
1.12,0.27,0.67,-0.00,1.58,9.49
0.78,0.80,0.69,0.36,1.32,9.59
0.94,1.48,0.65,0.35,1.15,9.65
1.72,1.92,0.68,0.22,1.44,9.65
1.71,2.31,0.77,0.31,2.05,10.04
0.83,2.55,0.88,0.24,2.04,9.97
0.05,2.66,0.77,0.09,1.82,10.17
-0.00,2.61,0.71,-0.10,1.70,10.38
0.20,1.12,0.58,-0.28,1.71,10.71
0.09,0.42,0.65,-0.03,1.74,10.80
-0.47,-0.14,0.65,-0.21,1.68,10.31
-0.91,-0.68,0.62,-0.13,1.38,9.85
-0.18,-0.62,0.60,-0.31,1.47,9.56
-0.32,-0.82,0.52,-0.27,1.73,9.88
-0.81,-1.08,0.44,-0.37,1.80,9.95
-1.07,-1.15,0.46,-0.35,1.57,9.69
-0.18,-0.28,0.53,0.06,1.55,9.61
-0.06,0.43,0.54,0.05,1.75,9.57
-0.09,0.96,0.51,-0.08,1.79,9.61
-0.23,1.31,0.49,0.04,1.64,9.83
0.23,1.35,0.48,-0.11,1.24,10.02
0.69,1.03,0.55,-0.25,1.28,10.09
0.80,0.43,0.63,-0.37,1.43,9.91
1.00,-0.04,0.53,-0.26,1.48,9.91
1.09,-0.63,0.45,-0.50,1.48,9.67
1.26,-1.24,0.37,-0.25,1.61,9.99
1.44,-1.73,0.54,0.01,1.83,10.09
1.31,-2.07,0.61,-0.00,1.87,9.91
0.78,-2.11,0.71,-0.18,1.82,9.76
0.61,-1.92,0.64,-0.25,1.78,9.87
0.08,-1.84,0.52,-0.20,1.68,9.84
0.20,-1.46,0.50,-0.15,1.57,9.67
0.30,-0.96,0.66,0.15,1.40,9.46
0.48,1.12,0.55,0.28,1.35,9.19
0.42,2.09,0.53,0.18,1.53,9.06
0.68,2.54,0.49,0.15,1.65,9.24
0.35,2.47,0.43,0.28,1.90,10.04
-0.11,2.22,0.48,0.07,1.71,10.00
-0.10,1.67,0.50,-0.52,1.46,9.63
0.49,1.08,0.41,-0.49,1.36,9.70
1.06,0.05,0.30,-0.12,1.92,10.05
0.22,-0.72,0.31,0.06,1.78,10.11
-0.09,-1.09,0.34,0.34,1.43,10.17
0.40,-1.00,0.51,0.28,1.21,10.15
0.94,-1.16,0.61,-0.24,1.91,10.20
0.28,-1.00,0.58,-0.10,1.95,10.57
-0.67,-0.64,0.59,-0.02,1.60,10.60
-0.86,-0.21,0.54,-0.20,1.24,10.17
1.04,0.32,0.63,0.10,1.56,10.09
0.95,0.69,0.67,0.20,2.07,10.40
-0.35,0.78,0.68,0.03,2.14,10.55
-1.23,0.58,0.68,-0.22,1.79,10.38
-0.67,0.02,0.73,0.03,1.11,10.28
-0.29,-0.08,0.74,-0.31,1.28,9.84
-0.52,-0.26,0.64,-0.49,1.38,9.71
-0.96,-0.38,0.53,-0.34,1.24,9.76
-1.37,-0.97,0.38,-0.24,1.06,9.44
-0.86,-1.40,0.43,-0.05,1.03,9.17
-0.38,-1.45,0.49,0.26,1.05,9.21
-0.28,-0.91,0.50,0.13,1.25,9.16
-0.91,0.12,0.45,-0.11,1.35,9.26
-1.22,0.77,0.38,0.03,1.27,9.77
-1.76,1.30,0.34,-0.12,1.19,9.91
-2.17,1.29,0.29,-0.23,0.96,10.01
-1.89,1.02,0.22,-0.02,0.67,10.00
-1.25,0.99,0.23,0.15,0.65,10.03
-1.23,0.88,0.27,0.24,0.67,10.06
-1.24,0.84,0.36,0.13,0.75,10.12
-1.06,0.53,0.28,-0.31,0.97,9.82
-1.20,0.08,0.27,-0.38,1.00,9.61
-1.15,-0.12,0.25,-0.15,0.94,9.59
-1.09,-0.13,0.27,0.12,0.76,9.49
-0.33,-0.16,0.44,0.28,0.58,9.14
0.40,0.24,0.46,0.26,0.66,9.19
0.74,0.49,0.46,0.04,0.90,9.54
0.72,0.41,0.48,-0.27,1.16,9.84
-0.30,-0.42,0.41,-0.20,0.70,10.14
-0.05,-0.21,0.35,0.12,0.54,10.09
0.19,0.14,0.34,-0.10,0.63,9.84
0.26,0.22,0.29,-0.25,0.93,9.77
-0.09,0.50,0.28,0.05,1.32,10.38
-0.93,0.50,0.26,-0.03,1.17,10.31
-1.20,0.40,0.25,-0.02,0.76,10.34
-0.97,0.31,0.17,-0.28,0.46,10.08
0.09,0.11,0.01,-0.33,0.96,9.86
-0.47,0.02,-0.10,-0.13,1.18,10.24
-1.88,-0.20,-0.20,-0.02,0.98,10.38
-2.44,-0.35,-0.22,-0.10,0.43,10.03
-0.44,-0.80,-0.10,0.12,0.41,9.49
-0.24,-0.50,-0.11,0.07,0.92,9.59
-1.10,-0.24,-0.13,0.10,1.10,9.67
-1.76,-0.02,-0.20,-0.17,0.85,9.73
-1.66,-0.45,-0.37,-0.32,0.15,9.55
-0.17,-0.80,-0.37,-0.03,0.41,9.50
0.40,-1.12,-0.17,0.21,0.91,9.38
-0.37,-1.08,-0.17,0.33,1.01,9.21
-0.48,0.06,-0.12,0.38,0.36,9.01
0.19,0.65,-0.25,-0.02,0.49,9.41
0.05,0.59,-0.27,-0.23,0.85,10.00
-0.53,0.02,-0.30,-0.35,0.88,10.47
-0.57,-1.02,-0.21,0.11,0.22,9.85
0.21,-0.84,-0.22,0.28,0.26,9.39
1.12,-0.13,-0.19,0.45,0.83,9.25
0.67,0.57,-0.18,0.55,1.24,9.51
-1.07,1.75,-0.14,0.22,0.65,10.11
-0.84,1.87,-0.14,0.11,0.33,10.66
-0.31,1.67,-0.10,-0.17,0.47,10.84
-0.34,1.09,-0.15,-0.31,0.55,10.76
-0.31,0.71,-0.09,0.51,0.70,10.43
-0.76,0.50,-0.04,0.19,0.50,9.84
-0.26,0.40,-0.09,0.08,0.23,9.38
1.12,0.63,0.01,0.63,0.42,9.68
-0.20,0.79,-0.06,-0.77,0.82,9.04
-0.11,0.15,-0.14,-0.33,0.59,9.01
0.45,-0.11,-0.11,0.28,0.40,9.65
0.66,-0.09,-0.20,-0.18,0.61,9.17
0.62,-1.18,-0.11,0.07,0.61,9.34
0.35,-1.03,-0.24,0.16,0.56,9.47
0.50,-0.95,-0.26,-0.34,0.63,9.29
0.44,-1.41,-0.33,-0.46,0.51,9.25
0.87,-1.26,-0.46,-0.31,0.53,9.75
0.95,-1.30,-0.58,-0.60,0.62,9.44
1.05,-1.81,-0.69,-0.19,0.60,9.37
1.57,-1.71,-0.56,0.24,0.63,9.42
0.99,-0.03,-0.61,0.14,1.04,9.91
0.28,0.19,-0.66,-0.02,0.88,10.26
0.07,0.34,-0.69,-0.18,0.68,10.63
0.21,0.31,-0.70,0.13,0.64,10.78
-0.55,0.68,-0.70,0.47,0.55,11.13
-1.18,1.05,-0.75,0.30,0.36,10.65
-0.50,0.95,-0.70,0.23,0.31,10.38
0.06,0.99,-0.61,0.51,0.51,10.90
-1.39,1.24,-0.72,-0.08,0.81,11.04
-1.46,0.43,-0.70,0.05,0.66,10.90
-1.82,-0.09,-0.72,0.03,0.32,10.48
-1.22,-0.11,-0.74,0.01,0.18,9.77
-0.35,-0.36,-0.63,0.40,0.59,9.71
-0.91,-0.19,-0.71,0.20,0.60,9.35
-0.59,-0.27,-0.62,0.09,0.43,8.95
0.28,-0.27,-0.73,0.22,0.55,9.29
0.73,-0.10,-0.63,-0.15,0.87,9.03
-0.21,-0.53,-0.77,-0.29,0.86,9.09
-0.81,-0.64,-0.89,-0.08,0.53,9.22
-0.13,-0.41,-0.80,0.23,0.34,9.18
0.21,-0.27,-0.79,0.05,0.77,9.60
0.04,-0.28,-0.69,0.05,1.04,9.99
-0.46,-0.39,-0.67,-0.08,1.01,10.30
-1.14,-0.59,-0.70,0.07,0.79,10.54
-1.21,-0.44,-0.59,-0.29,0.76,9.56
-1.65,-0.34,-0.70,0.46,0.43,9.64
-1.00,0.58,-0.64,0.62,0.30,9.44
-0.81,1.19,-0.54,0.40,0.32,9.21
0.20,1.74,-0.49,0.12,0.42,9.75
0.19,1.33,-0.45,0.05,0.70,10.10
-0.58,0.93,-0.55,0.18,0.69,10.22
-0.51,0.87,-0.50,0.05,0.47,9.73
0.17,0.84,-0.59,0.32,0.41,9.92
0.34,0.76,-0.51,0.29,0.77,9.86
-0.01,0.32,-0.45,0.04,0.78,9.77
-0.63,-0.14,-0.51,0.13,0.49,9.81
0.23,-0.07,-0.39,0.23,0.64,9.97
-0.09,-0.09,-0.41,-0.16,0.77,9.98
-0.43,-0.09,-0.48,-0.16,0.83,9.98
-0.96,-0.12,-0.48,0.13,0.77,10.10
-1.31,0.28,-0.55,-0.07,0.44,9.44
-0.67,0.19,-0.54,0.13,0.41,9.36
-0.49,0.25,-0.54,0.23,0.54,9.55
-0.50,0.59,-0.51,-0.00,0.75,9.35
-1.19,0.89,-0.60,0.06,0.65,10.17
-1.39,1.02,-0.64,-0.02,0.44,10.36
-0.88,0.44,-0.59,-0.40,0.31,10.05
-0.29,-0.45,-0.67,-0.43,0.26,9.81
0.64,-0.59,-0.54,0.60,0.74,9.76
-0.33,-0.01,-0.60,0.33,0.67,9.47
-0.36,0.39,-0.57,0.08,0.32,9.01
0.71,0.81,-0.49,0.26,0.15,9.46
1.08,1.41,-0.60,-0.25,1.08,10.07
0.18,0.81,-0.56,-0.12,0.98,10.37
-0.87,0.19,-0.66,-0.02,0.26,10.17
-0.14,-0.10,-0.63,0.06,-0.01,9.40
1.71,-0.40,-0.57,0.05,0.62,9.51
1.23,-0.36,-0.59,-0.13,1.02,9.53
0.63,-0.52,-0.60,-0.08,0.77,9.72
0.18,-0.60,-0.71,0.00,0.23,9.69
2.41,-0.64,-0.66,-0.12,0.39,9.19
2.28,-0.98,-0.74,0.06,0.84,9.51
1.61,-0.92,-0.72,-0.04,1.02,9.61
0.93,-0.96,-0.73,-0.03,0.75,9.49
1.22,-0.52,-0.68,-0.01,0.53,9.83
1.50,-0.44,-0.63,-0.04,0.78,9.98
0.97,-0.39,-0.68,0.08,0.80,10.42
0.30,-0.24,-0.68,0.12,0.71,10.55
0.10,-0.43,-0.65,0.09,0.46,10.70
0.29,-0.44,-0.59,0.34,0.54,10.73
0.35,-0.39,-0.40,0.30,0.75,10.32
-0.14,-0.19,-0.40,0.05,0.72,10.04
-0.11,0.46,-0.38,0.40,0.32,9.87
0.20,0.82,-0.44,0.40,0.22,9.96
0.58,0.90,-0.39,0.20,0.44,9.66
0.78,0.62,-0.29,0.24,0.61,9.62
0.72,0.56,-0.25,0.30,0.65,9.53
0.36,0.73,-0.23,0.35,0.54,9.58
0.02,0.73,-0.33,0.02,0.54,9.45
0.54,0.71,-0.33,-0.16,0.62,9.68
-0.49,0.23,-0.53,0.21,0.76,10.52
-1.14,0.11,-0.32,0.22,0.76,10.81
-1.96,0.00,-0.33,-0.09,0.53,10.85
-2.05,-0.25,-0.35,-0.19,0.32,10.60
-1.49,-0.30,-0.51,-0.09,0.66,9.96
-1.59,0.07,-0.47,0.14,0.84,9.88
-2.38,0.33,-0.45,0.03,0.60,10.02
-2.96,0.18,-0.57,-0.05,0.23,9.84
-1.32,-0.56,-0.47,-0.24,-0.01,9.64
-0.92,-0.73,-0.50,-0.28,0.23,9.62
-0.89,-0.99,-0.52,-0.17,0.45,9.77
-1.15,-1.30,-0.59,-0.28,0.46,9.70
-1.03,-1.75,-0.59,-0.07,0.15,9.22
-0.82,-1.67,-0.59,0.07,0.05,9.05
-0.50,-1.21,-0.61,0.28,0.02,9.04
-0.01,-0.55,-0.58,0.47,0.05,9.25
0.73,-0.01,-0.53,-0.11,0.44,9.53
0.74,0.04,-0.57,0.18,0.72,10.05
0.30,0.13,-0.48,0.02,0.86,9.91
-0.35,0.07,-0.57,-0.12,0.58,9.42
0.11,0.95,-0.59,0.57,0.00,9.13
0.83,1.61,-0.56,0.32,0.31,9.17
0.63,1.64,-0.54,0.15,0.64,9.57
0.10,1.20,-0.57,0.03,0.64,9.86
0.06,0.43,-0.63,-0.03,0.06,9.59
0.58,0.61,-0.61,0.35,0.02,9.75
0.62,0.95,-0.63,0.41,0.35,10.00
0.46,1.08,-0.64,0.19,0.62,10.02
0.17,0.77,-0.54,0.30,0.41,10.18
0.05,0.94,-0.56,0.09,0.37,10.10
0.02,1.04,-0.57,0.14,0.31,10.13
-0.25,0.94,-0.58,0.23,0.17,10.24
0.03,0.56,-0.62,-0.10,0.08,10.23
-0.10,0.13,-0.57,0.08,0.20,10.68
-0.52,-0.33,-0.60,-0.24,0.37,10.45
-1.26,-1.36,-0.58,0.00,-0.22,9.81
-0.58,-1.13,-0.59,0.03,-0.29,9.66
0.27,-0.97,-0.56,0.01,0.25,9.70
0.25,-1.09,-0.55,-0.07,0.73,9.93
-0.74,-1.35,-0.60,-0.34,0.79,9.75
-1.00,-1.55,-0.62,0.19,0.05,9.42
-0.45,-1.23,-0.55,0.21,-0.04,9.20
0.22,-0.78,-0.48,0.18,0.25,8.94
0.06,-0.22,-0.46,0.38,0.42,9.14
-0.78,1.20,-0.48,0.04,0.34,9.43
-1.06,1.59,-0.57,0.12,0.11,10.33
-1.30,1.60,-0.62,0.24,0.04,11.11
-1.32,0.96,-0.54,-0.16,0.14,10.80
-0.94,-0.32,-0.45,0.36,0.25,10.45
-1.21,0.33,-0.44,0.51,0.39,10.21
-1.47,0.61,-0.48,0.20,0.44,9.70
-1.48,0.64,-0.50,-0.03,0.15,9.60
-0.10,0.69,-0.36,0.54,-0.15,9.58
0.39,0.84,-0.25,0.39,0.21,9.61
0.09,0.83,-0.20,0.06,0.29,9.25
-0.03,0.66,-0.30,-0.08,0.02,9.00
0.75,0.72,-0.48,0.04,-0.19,9.10
1.23,0.45,-0.52,-0.09,0.00,9.00
1.54,-0.05,-0.50,-0.04,0.07,9.20
1.85,-0.19,-0.55,-0.13,0.19,9.21
1.95,-0.48,-0.58,-0.26,0.64,9.51
1.31,-0.64,-0.70,-0.10,0.74,10.03
0.45,-0.94,-0.69,-0.01,0.56,10.20
0.44,-1.16,-0.68,-0.17,0.23,10.00
1.44,-0.63,-0.57,0.08,0.55,10.14
0.69,-0.11,-0.65,0.11,0.86,10.54
-0.46,0.06,-0.69,-0.12,0.67,10.58
-0.62,-0.24,-0.75,-0.44,0.01,10.24
1.30,-0.59,-0.64,0.53,-0.07,10.18
1.78,-0.14,-0.52,0.12,0.56,9.79
1.24,-0.23,-0.52,-0.40,0.67,9.31
0.91,-0.55,-0.63,-0.11,0.26,9.44
2.10,-0.05,-0.68,0.06,0.14,9.70
2.30,-0.37,-0.62,0.16,0.35,10.06
1.98,-0.61,-0.58,0.39,0.33,10.72
1.50,-0.59,-0.50,0.06,0.44,10.62
0.90,-0.66,-0.57,0.17,0.45,10.62
0.62,-0.21,-0.61,0.26,0.45,10.55
0.53,0.10,-0.62,0.08,0.47,10.11
0.43,0.19,-0.66,0.28,0.29,10.01
0.87,1.05,-0.55,0.26,0.48,10.27
0.84,0.93,-0.56,-0.17,0.68,10.09
0.41,0.47,-0.62,-0.08,0.68,10.01
0.45,0.35,-0.63,0.09,0.57,9.58
0.99,0.71,-0.72,0.51,0.48,9.42
0.73,1.17,-0.70,0.64,0.65,9.65
0.48,1.18,-0.61,0.07,0.79,9.40
0.17,0.75,-0.59,-0.02,0.74,9.58
-0.15,0.63,-0.54,-0.04,0.48,9.96
-0.41,0.25,-0.59,-0.23,0.46,9.94
-0.31,-0.20,-0.66,0.03,0.53,9.98
-0.41,-0.41,-0.58,0.19,0.65,9.92
-1.11,-0.42,-0.53,0.03,0.78,9.76
-1.76,-0.54,-0.46,0.25,0.55,10.10
-1.91,-0.71,-0.47,-0.13,0.30,9.98
-1.24,-1.22,-0.44,-0.44,0.21,9.52
0.02,-1.67,-0.43,0.23,0.56,9.44
-0.36,-0.81,-0.44,0.35,0.80,9.35
-1.14,0.06,-0.48,0.34,0.56,9.19
-1.09,0.71,-0.42,0.40,0.11,9.37
0.62,1.68,-0.24,0.20,0.40,10.44
0.35,1.54,-0.26,-0.26,0.79,10.72
-0.29,1.19,-0.34,-0.14,0.77,10.69
-0.45,1.00,-0.32,0.22,0.46,10.40
0.41,1.99,-0.24,0.67,0.39,10.39
0.61,2.10,-0.15,0.38,0.71,10.46
0.42,1.76,-0.15,-0.22,0.90,10.58
-0.04,0.89,-0.15,-0.42,0.84,10.27
0.46,-0.31,-0.25,0.24,0.38,9.85
0.99,-0.41,-0.14,0.05,0.49,9.00
1.17,-0.58,-0.14,-0.07,0.61,8.67
1.06,-0.41,-0.27,0.28,0.73,8.79
0.85,0.17,-0.18,-0.03,0.83,8.75
0.54,0.02,-0.23,0.08,0.63,8.98
0.89,0.05,-0.23,-0.03,0.57,9.00
1.54,0.10,-0.20,-0.29,0.66,8.91
1.32,0.33,-0.38,-0.13,1.08,9.26
0.90,0.43,-0.43,-0.10,1.12,9.40
0.14,0.43,-0.44,0.07,1.00,9.72
-0.14,0.54,-0.40,0.03,0.86,10.01
-0.63,0.43,-0.32,-0.16,0.72,10.64
-0.76,0.37,-0.32,-0.36,0.83,10.78
-1.03,0.01,-0.29,-0.41,0.81,10.82
-1.37,-0.28,-0.35,0.05,0.73,11.00
-1.62,0.19,-0.17,0.28,0.75,10.66
-1.89,0.37,-0.10,-0.00,0.66,10.50
-1.81,0.29,-0.03,0.01,0.50,10.54
-1.56,0.25,0.03,0.00,0.54,10.40
-0.83,-0.12,0.11,-0.00,0.60,9.67
-0.74,-0.15,0.13,0.25,0.59,9.85
-1.12,0.02,0.11,0.14,0.60,9.60
-1.09,-0.10,0.20,-0.04,0.48,9.20
0.24,-0.33,0.26,0.04,0.40,9.24
0.56,-0.02,0.28,0.05,0.82,9.35
0.17,0.22,0.28,0.00,1.04,9.43
-0.60,0.22,0.18,-0.19,0.87,9.28
0.37,0.25,0.10,0.01,0.53,9.13
0.81,0.45,0.08,0.11,0.85,9.41
0.57,0.63,0.21,-0.07,1.17,9.49
-0.34,0.40,0.18,-0.28,1.12,9.52
-0.35,0.19,0.07,-0.21,0.67,9.78
-0.30,0.04,0.06,-0.34,0.69,9.80
-0.30,-0.35,-0.02,-0.28,0.75,9.85
-0.13,-0.74,-0.03,-0.17,0.75,10.04
-0.81,-0.96,0.05,-0.02,0.64,10.13
-0.53,-1.05,0.09,-0.20,0.61,9.62
-0.00,-1.05,0.13,-0.11,0.52,9.42
0.41,-0.60,0.08,0.03,0.51,9.44
0.63,0.27,0.05,0.11,0.54,9.69
0.76,0.27,0.12,0.08,0.57,9.60
1.13,0.22,0.20,-0.02,0.62,9.57
1.39,0.00,0.21,-0.36,0.61,9.41
1.57,-0.43,-0.00,-0.02,0.57,9.70
1.64,-0.55,0.00,-0.19,0.76,9.64
1.66,-0.78,-0.06,-0.22,0.86,9.76
1.42,-1.00,0.01,-0.08,0.81,10.03
0.47,-0.92,0.01,-0.07,0.84,10.45
0.01,-0.97,0.01,-0.28,0.80,10.60
-0.17,-1.05,-0.02,-0.14,0.81,10.68
-0.38,-1.04,0.05,0.12,0.82,10.75
-1.22,-0.21,0.02,0.11,0.94,10.29
-1.83,0.06,0.01,0.20,0.57,10.24
-1.54,0.41,0.04,0.13,0.31,10.23
-0.86,0.56,0.14,-0.07,0.45,10.09
-0.72,-0.24,-0.05,-0.02,0.61,9.54
-0.76,0.11,0.05,0.45,0.52,9.61
-1.44,0.54,0.06,0.22,0.28,9.41
-1.72,0.57,0.00,-0.24,0.19,9.22
-0.64,-0.01,0.02,0.14,-0.02,9.96
-0.36,-0.46,0.13,-0.47,0.27,9.56
-0.56,-1.02,0.04,-0.30,0.42,9.62
-0.65,-1.21,-0.02,-0.15,0.38,9.55
-0.67,-1.29,-0.15,-0.02,0.36,9.05
-0.16,-1.18,-0.11,-0.07,0.42,9.10
0.41,-1.06,-0.08,-0.03,0.50,9.29
0.64,-1.06,0.01,0.01,0.74,9.56
0.04,-1.06,0.03,-0.17,0.95,9.89
-1.27,-1.07,-0.14,-0.42,0.49,10.14
-1.51,-1.36,-0.21,-0.05,0.06,10.38
-1.09,-1.19,-0.17,0.16,0.10,10.26
-0.82,-0.53,-0.00,0.08,0.19,10.09
-0.71,-0.19,-0.01,0.04,0.15,9.89
-0.34,0.02,-0.03,0.11,0.12,9.78
-0.00,0.44,-0.12,0.05,0.13,9.70
0.81,0.57,-0.07,0.15,0.31,9.59
0.97,0.37,-0.05,0.14,0.40,9.58
1.18,0.02,0.09,0.15,0.50,9.29
1.45,-0.29,0.09,-0.04,0.56,9.24
0.86,-0.32,-0.02,0.28,0.55,9.69
0.44,-0.22,-0.01,0.10,0.47,9.82
0.47,-0.39,-0.06,-0.34,0.39,9.64
0.53,-0.77,-0.09,-0.27,0.29,9.98
0.13,-1.18,-0.13,-0.26,0.45,10.30
-0.28,-1.73,-0.17,-0.43,0.51,10.32
-0.66,-2.11,-0.21,-0.23,0.44,10.37
-0.71,-2.24,-0.15,0.06,0.49,10.22
-0.81,-1.94,-0.14,-0.32,0.60,9.56
-0.82,-1.89,-0.14,0.06,0.40,9.59
-0.45,-1.68,-0.09,0.28,0.27,9.64
0.26,-1.34,-0.05,0.11,0.33,9.42
0.21,-0.27,0.09,0.50,0.29,9.97
0.16,0.45,0.07,0.14,0.31,10.01
-0.35,0.93,0.03,0.15,0.19,10.42
-0.55,1.12,-0.04,0.13,0.08,10.58
0.00,0.09,0.11,-0.07,0.06,10.14
0.26,-0.43,0.07,0.28,0.14,9.91
0.63,-0.30,0.07,0.33,0.29,9.55
1.04,-0.11,0.05,-0.07,0.65,9.06
0.49,-0.51,-0.05,0.24,0.93,9.35
-0.02,-0.22,-0.04,0.55,0.81,9.66
-0.33,0.07,0.02,0.10,0.78,9.48
-0.67,-0.20,0.09,-0.24,0.67,9.52
-1.08,-0.45,-0.10,-0.12,0.63,9.97
-1.31,-0.57,-0.10,-0.18,0.53,9.94
-1.78,-0.74,-0.20,-0.15,0.47,9.95
-1.96,-0.83,-0.20,0.16,0.28,9.84
-0.77,-0.78,-0.16,-0.17,0.21,9.47
-0.15,-0.81,-0.20,-0.12,0.58,9.67
-0.20,-0.88,-0.21,-0.09,0.79,9.94
-0.37,-0.95,-0.16,0.08,0.76,10.06
-0.33,-0.59,-0.06,0.17,0.61,10.00
-0.18,-0.61,-0.15,0.06,0.38,9.58
0.94,-0.48,-0.08,0.15,0.38,9.35
1.22,-0.05,-0.01,0.41,0.40,9.69
0.89,0.80,0.02,0.14,0.50,9.83
0.83,0.59,-0.08,0.20,0.18,10.02
1.66,0.65,-0.06,-0.08,0.30,9.88
2.15,0.63,0.02,-0.07,0.60,10.11
1.35,-0.28,-0.14,-0.07,0.80,9.74
1.49,-0.43,-0.04,0.38,0.68,9.66
1.84,-0.41,0.01,-0.01,0.72,8.96
2.20,-0.42,0.05,-0.04,0.89,8.75
1.50,0.90,-0.04,0.60,0.95,9.41
0.98,1.31,0.15,-0.02,1.05,9.34
0.33,1.05,0.02,-0.19,0.84,9.61
0.53,0.80,-0.10,0.22,0.64,10.04
-0.06,1.14,0.02,0.04,0.75,10.35
-0.75,0.74,0.05,-0.24,0.73,10.04
-0.75,0.46,-0.04,0.08,0.47,10.19
-0.65,0.58,0.02,0.49,0.57,10.34
-1.12,0.30,0.05,-0.14,0.71,10.03
-1.33,0.21,0.03,0.11,0.30,10.05
-0.64,0.47,0.04,0.11,0.07,9.84
-0.19,0.59,0.04,0.07,0.27,9.94
-0.81,0.74,0.05,0.09,0.67,10.57
-1.52,0.81,-0.01,0.02,0.40,10.74
-1.84,0.74,-0.04,-0.16,0.10,10.76
-1.55,0.39,-0.12,-0.57,-0.04,10.52
-0.83,-0.35,-0.03,0.24,0.48,10.91
-1.39,-0.40,-0.08,-0.34,0.70,10.19
-1.71,-0.67,-0.16,-0.15,0.49,9.77
-1.32,-0.62,-0.20,0.27,0.10,9.93
-0.87,-0.40,-0.18,-0.21,0.64,9.46
-1.02,-0.62,-0.26,-0.01,0.67,9.44
-0.88,-0.72,-0.11,0.09,0.36,9.08
-0.81,-0.53,-0.11,0.20,0.26,8.76
-0.15,0.31,-0.17,0.02,0.33,8.41
-0.39,0.30,-0.16,0.08,0.26,8.42
-0.42,0.42,-0.20,0.24,0.10,8.93
-0.06,0.75,-0.24,-0.14,0.18,9.25
-0.31,-0.25,-0.37,-0.13,0.10,10.36
-0.43,-0.72,-0.33,-0.31,0.14,10.43
-0.54,-1.25,-0.30,-0.69,0.19,10.04
-0.67,-1.78,-0.45,-0.27,0.11,9.97
-0.67,-0.90,-0.35,0.20,0.14,9.61
-0.81,-0.59,-0.31,-0.27,0.16,9.42
-1.26,-0.37,-0.37,0.52,-0.09,10.39
-0.93,0.38,-0.29,0.32,-0.00,10.77
-1.27,0.05,-0.30,0.01,0.02,10.41
-1.33,0.15,-0.27,0.16,-0.15,10.19
-1.30,0.38,-0.34,0.11,-0.20,9.71
-1.26,0.34,-0.40,0.01,-0.24,9.41
-0.52,-0.15,-0.25,0.36,-0.45,9.27
-0.16,-0.11,-0.22,0.10,-0.32,9.03
0.11,0.01,-0.23,0.22,-0.23,8.98
0.21,0.26,-0.26,0.36,-0.20,9.12
0.36,0.43,-0.29,0.03,-0.10,9.03
0.63,0.05,-0.38,0.03,0.06,9.27
0.68,-0.11,-0.34,0.11,-0.05,9.39
0.63,-0.05,-0.32,0.21,-0.12,9.57
0.48,0.03,-0.45,-0.15,0.08,10.14
0.11,-0.22,-0.48,-0.09,0.07,10.80
-0.32,-0.53,-0.54,-0.18,-0.03,11.04
-1.01,-1.06,-0.52,-0.00,-0.29,11.03
-0.94,-0.91,-0.53,0.03,-0.37,10.64
-0.84,-0.63,-0.58,0.19,-0.29,10.47
-1.05,-0.18,-0.63,0.29,-0.25,10.60
-1.18,0.12,-0.56,0.20,-0.25,10.41
-0.98,0.04,-0.48,0.01,-0.44,9.62
-0.62,0.09,-0.49,0.19,-0.54,9.23
-0.02,0.07,-0.52,0.14,-0.51,8.93
0.48,0.07,-0.49,0.19,-0.54,8.78
0.79,0.60,-0.46,0.48,-0.39,8.90
0.81,0.83,-0.47,0.29,-0.40,8.93
0.95,0.75,-0.47,0.09,-0.45,9.01
1.38,0.71,-0.47,-0.05,-0.39,9.29
1.75,-0.10,-0.50,0.02,-0.15,9.60
1.27,-0.17,-0.51,0.35,0.00,10.07
0.58,0.12,-0.49,0.27,0.06,10.07
-0.24,0.14,-0.41,0.03,-0.23,10.18
-0.47,-0.08,-0.48,-0.01,-0.54,10.97
-0.82,-0.17,-0.40,0.13,-0.34,11.52
-1.78,-0.55,-0.42,-0.16,-0.19,11.08
-1.96,-0.93,-0.33,-0.07,-0.25,10.48
-1.55,0.04,-0.24,0.44,-0.46,9.89
-1.21,0.56,-0.19,0.02,-0.35,9.53
-1.11,0.63,-0.19,0.16,-0.54,9.79
-0.66,0.67,-0.07,0.19,-0.62,9.85
0.20,0.20,0.01,0.09,-0.57,9.46
0.74,0.01,0.07,0.21,-0.47,9.04
1.06,0.23,0.10,0.33,-0.28,9.04
0.72,0.73,0.11,0.31,-0.17,9.02
0.15,1.22,0.16,0.35,-0.58,9.43
0.38,1.68,0.22,0.53,-0.63,9.93
0.48,2.14,0.31,0.03,-0.45,10.40
-0.29,1.86,0.31,-0.42,-0.29,10.70
-1.12,0.10,0.14,-0.33,-0.55,10.92
-1.14,-0.43,0.24,-0.17,-0.55,10.39
-0.89,-0.85,0.32,-0.09,-0.34,9.84
-0.93,-0.90,0.37,0.08,-0.20,9.83
-1.20,-0.70,0.52,-0.23,-0.24,9.59
-1.15,-0.97,0.56,-0.51,-0.45,9.57
-0.77,-1.31,0.58,-0.25,-0.54,9.60
-0.46,-1.45,0.68,0.01,-0.45,9.62
-0.18,-1.14,0.84,0.06,-0.44,9.12
-0.26,-0.58,1.05,0.27,-0.62,9.47
-0.42,0.08,1.18,-0.05,-0.85,9.44
-0.47,0.18,1.21,-0.14,-0.82,9.37
0.27,0.39,1.36,-0.13,-0.95,9.64
0.54,0.38,1.46,-0.14,-0.72,9.27
0.96,0.38,1.56,-0.14,-0.35,9.20
0.90,0.58,1.57,0.05,-0.20,9.43
0.31,0.86,1.91,-0.07,-0.34,9.76
0.20,0.78,2.00,-0.05,-0.28,9.81
0.45,1.00,2.18,-0.04,-0.28,9.96
0.35,1.33,2.24,0.02,-0.24,9.99
-0.76,1.67,2.49,-0.20,-0.16,10.27
-1.05,1.81,2.46,-0.16,-0.35,10.47
-1.21,1.36,2.70,-0.24,-0.55,10.48
-1.12,0.70,2.82,-0.52,-0.62,10.41
-0.87,0.07,3.05,-0.49,-0.23,10.04
-1.36,-0.35,3.09,-0.51,-0.22,9.62
-1.40,-0.56,3.23,-0.30,-0.25,9.66
-0.83,-0.35,3.38,-0.63,-0.37,9.61
-0.99,-1.12,3.58,-0.37,-0.54,9.64
-0.45,-1.08,3.72,-0.66,-0.52,9.48
-0.18,-1.12,3.79,-0.68,-0.44,9.24
0.09,-1.07,3.89,-0.56,-0.28,9.28
-0.22,-0.55,4.05,-0.72,-0.25,9.19
-0.02,-0.44,4.10,-0.78,-0.48,9.46
0.26,-0.33,4.10,-0.42,-0.47,9.99
0.87,-0.19,4.30,-0.88,-0.10,9.96
0.47,-1.06,4.30,-0.55,0.19,10.08
0.18,-0.66,4.57,-0.35,0.07,10.14
-0.32,-0.12,4.56,-0.51,-0.12,9.92
-0.53,0.29,4.62,-0.48,-0.26,10.12
0.11,0.52,4.81,-0.82,-0.28,10.11
0.19,0.45,4.95,-0.79,-0.17,10.01
-0.11,0.74,4.97,-0.44,-0.27,9.92
-0.33,1.13,4.99,-0.40,-0.44,9.50
1.61,1.18,5.16,-0.66,-0.69,9.20
2.13,1.22,5.24,-0.46,-0.10,9.65
1.89,1.30,5.31,-0.94,0.35,9.52
1.15,0.88,5.29,-1.06,0.21,9.47
1.36,0.37,5.37,-0.85,-0.39,9.64
2.20,0.23,5.43,-0.86,-0.12,9.56
2.35,0.02,5.56,-1.04,0.40,9.62
1.59,-0.03,5.60,-0.95,0.50,9.90
-0.06,-0.19,5.64,-1.26,-0.16,10.13
0.07,-0.36,5.61,-1.11,-0.34,10.09
0.38,-0.51,5.75,-1.01,-0.12,10.02
0.27,-0.37,5.82,-0.87,0.23,9.84
-1.00,0.68,5.95,-0.93,0.02,10.23
-1.13,0.83,5.99,-1.23,-0.11,10.13
-0.93,0.37,6.06,-1.40,-0.25,10.06
-0.47,0.06,6.02,-1.10,-0.19,9.70
-0.09,0.13,6.16,-0.64,-0.02,9.47
0.16,1.16,6.30,-0.90,0.02,9.51
0.13,1.08,6.48,-0.92,-0.14,10.07
0.04,0.95,6.53,-1.18,-0.19,10.37
-0.15,0.63,6.71,-0.94,-0.22,10.08
-0.22,0.81,6.73,-0.77,-0.28,9.88
0.20,1.22,6.89,-0.77,-0.22,9.87
0.36,1.06,6.94,-1.35,0.04,9.88
0.24,0.98,7.04,-1.06,0.18,10.10
-0.29,1.08,7.10,-1.22,0.18,9.84
-0.39,0.97,7.10,-1.22,0.04,9.56
-0.01,0.76,7.27,-1.24,-0.09,9.71
-0.12,0.35,7.40,-1.34,0.37,9.86
-0.65,-0.07,7.53,-1.61,0.26,9.84
-1.07,-0.42,7.52,-1.42,-0.10,9.53
-0.53,-0.46,7.68,-1.04,-0.25,9.49
-0.26,0.12,7.88,-1.43,0.05,10.00
-0.59,-0.17,8.05,-1.60,0.01,9.95
-0.43,-0.25,8.09,-1.41,-0.24,9.61
0.28,0.32,8.13,-0.84,-0.28,9.32
1.34,1.83,8.40,-1.36,0.01,9.58
1.42,1.64,8.48,-1.48,0.19,9.88
1.48,1.04,8.64,-1.81,0.20,9.87
1.15,0.34,8.57,-1.69,0.07,9.66
1.03,0.07,8.71,-1.17,-0.03,9.69
1.13,0.61,8.93,-1.46,0.17,9.43
0.83,0.69,9.06,-1.38,0.13,10.14
0.37,0.74,9.10,-1.74,0.27,10.39
-0.58,0.11,9.21,-1.49,0.39,10.06
-1.27,0.43,9.26,-1.31,0.25,9.74
-1.30,1.02,9.36,-1.27,-0.03,9.68
-1.08,1.23,9.48,-1.72,-0.24,9.76
-0.40,0.88,9.55,-1.70,0.36,10.01
-1.08,0.72,9.57,-1.78,0.40,9.79
-1.67,0.79,9.51,-1.48,0.04,9.62
-1.52,0.99,9.61,-1.48,-0.47,9.54
0.67,1.12,9.73,-1.66,-0.29,9.40
0.96,1.10,9.80,-1.66,0.26,9.60
0.38,1.54,9.72,-1.20,0.35,10.14
-0.59,2.14,9.81,-1.18,0.02,10.61
0.12,2.26,9.88,-1.94,-0.30,10.76
0.69,1.99,9.92,-1.80,0.09,10.96
0.17,1.71,9.92,-1.94,0.50,10.48
-0.70,1.22,9.86,-1.91,0.39,9.76
0.09,1.36,9.79,-1.74,-0.34,8.86
1.01,1.17,9.83,-2.07,-0.25,8.98
1.65,0.69,9.69,-2.09,0.03,9.50
1.48,0.23,9.67,-2.08,0.36,9.56
0.71,-0.18,9.56,-2.03,0.01,9.32
1.35,-0.24,9.54,-2.00,-0.12,9.34
1.95,-0.22,9.46,-1.93,-0.06,9.34
1.94,-0.12,9.37,-1.86,0.19,9.59
1.68,-0.25,9.24,-2.27,0.16,9.58
1.85,-0.34,9.16,-1.84,-0.07,9.62
2.36,0.17,9.18,-1.53,0.05,9.61
2.72,0.70,9.18,-1.84,0.32,9.57
2.16,0.32,8.99,-1.73,0.12,10.42
2.48,0.50,9.02,-1.65,0.22,10.63
2.39,0.55,8.95,-2.04,0.41,10.25
2.09,0.26,8.85,-1.92,0.52,10.08
1.40,0.48,8.81,-1.62,0.21,10.48
1.37,0.37,8.81,-2.04,0.26,10.41
1.40,-0.30,8.68,-2.11,0.36,10.44
1.36,-0.64,8.60,-1.77,0.49,10.55
-0.01,-0.45,8.55,-1.74,0.51,10.35
-0.51,-0.43,8.54,-1.54,0.26,10.36
-0.51,-0.09,8.53,-1.53,0.11,10.31
-0.19,0.18,8.50,-1.68,0.23,9.99
-0.78,-0.48,8.33,-1.94,0.19,10.31
-0.70,-0.33,8.21,-1.51,0.13,10.28
-0.76,-0.12,8.29,-1.63,0.19,10.03
-0.99,-0.06,8.26,-1.74,0.26,9.81
-0.86,-0.08,8.24,-1.44,0.21,10.11
-1.12,0.29,8.12,-1.33,0.25,9.99
-1.36,0.52,8.12,-1.80,0.19,9.81
-1.36,0.18,7.98,-2.09,0.09,9.80
-1.00,-0.73,7.95,-1.33,0.30,9.92
-1.34,-0.73,8.01,-1.59,0.46,9.32
-1.62,-0.73,8.02,-1.75,0.39,9.04
-1.77,-0.79,7.94,-1.38,0.15,9.26
-1.43,-0.56,7.80,-2.13,0.33,9.01
-1.54,-1.24,7.68,-1.87,0.29,9.50
-1.61,-1.92,7.72,-1.73,0.21,9.74
-1.61,-2.42,7.79,-1.70,0.26,9.41
-1.91,-2.40,7.76,-1.62,0.12,9.81
-2.06,-2.58,7.77,-2.01,-0.02,9.92
-1.97,-3.10,7.69,-2.07,-0.02,10.09
-1.56,-3.17,7.59,-1.65,0.21,10.23
-2.66,-2.47,7.68,-1.48,0.42,9.68
-2.93,-2.20,7.64,-1.19,-0.10,9.48
-2.33,-1.48,7.74,-0.85,-0.50,9.62
-1.44,-0.40,7.73,-1.17,-0.39,9.48
-0.70,0.18,7.66,-1.48,0.30,9.80
-1.33,0.28,7.57,-1.11,0.26,9.81
-1.20,0.78,7.57,-1.12,0.03,9.25
-0.91,1.20,7.52,-0.95,-0.23,8.90
1.03,1.81,7.56,-1.45,-0.13,8.84
1.79,1.36,7.42,-1.61,0.23,9.20
1.37,0.60,7.33,-1.49,0.55,9.61
0.55,0.03,7.22,-1.60,0.55,9.42
0.55,-0.88,7.23,-1.39,-0.10,9.79
0.87,-1.46,7.17,-1.75,0.13,9.85
0.86,-2.34,7.12,-1.92,0.60,9.85
0.03,-3.13,7.07,-1.74,0.80,10.03
-1.46,-3.44,6.84,-1.74,-0.02,9.74
-0.91,-3.62,6.79,-1.84,-0.32,9.43
0.05,-3.69,6.76,-1.53,-0.17,9.50
0.42,-3.58,6.73,-1.34,0.34,9.44
-0.65,-2.94,6.60,-1.41,0.28,8.98
-0.57,-2.21,6.50,-1.14,-0.31,9.35
0.33,-1.51,6.45,-1.23,-0.49,9.43
1.15,-1.27,6.44,-1.24,-0.22,9.42
1.30,0.01,6.36,-0.71,0.34,9.98
0.73,0.86,6.33,-0.78,0.28,10.36
-0.10,1.35,6.22,-1.07,0.16,10.61
-0.28,1.32,6.14,-1.08,0.01,10.67
0.07,1.02,6.00,-0.95,0.12,10.81
-0.09,0.71,6.06,-1.44,0.33,10.48
-0.59,-0.32,5.91,-1.51,0.18,9.97
-0.24,-1.30,5.76,-0.77,0.06,10.04
-0.11,-1.52,5.75,-1.48,0.19,9.44
-0.09,-2.39,5.62,-1.83,0.03,9.32
0.24,-2.87,5.49,-1.22,-0.07,9.79
0.34,-2.73,5.45,-1.07,0.21,9.77
-0.12,-2.66,5.23,-1.34,0.12,9.32
-0.02,-2.61,5.14,-1.27,0.14,9.44
-0.21,-2.52,4.98,-1.19,0.17,9.87
-0.61,-2.51,4.85,-1.36,0.31,10.16
-1.59,-3.12,4.71,-1.18,0.21,9.79
-1.54,-2.89,4.59,-0.88,0.13,9.37
-1.02,-1.99,4.49,-0.58,0.09,9.21
-0.93,-1.20,4.44,-0.61,0.17,9.60
-1.56,-1.24,4.17,-1.29,0.03,9.93
-1.22,-1.44,4.03,-0.58,-0.01,9.96
-0.95,-0.95,4.07,-0.36,0.19,9.50
-1.20,-0.26,4.01,-0.50,0.10,9.46
-1.41,0.14,3.87,-0.48,-0.10,10.00
-0.93,-0.36,3.63,-1.20,-0.07,10.40
-1.13,-1.03,3.46,-0.92,0.09,10.65
-1.49,-1.47,3.28,-0.77,0.25,10.35
-1.85,-1.50,3.13,-0.39,0.07,9.90
-1.73,-1.33,3.10,-0.80,-0.16,9.88
-1.19,-1.70,2.93,-1.25,-0.15,9.95
-1.08,-2.45,2.69,-1.12,0.10,9.74
-1.27,-3.01,2.39,-0.94,0.23,8.97
-1.26,-3.38,2.22,-0.96,-0.05,8.57
-0.93,-3.84,2.04,-0.45,-0.24,8.80
-0.29,-3.64,2.06,-0.68,-0.17,8.70
-0.19,-4.19,1.60,-0.76,0.10,8.75
0.17,-3.86,1.45,-0.17,0.11,9.35
0.15,-3.12,1.40,-0.24,0.22,9.51
0.13,-2.84,1.32,-0.91,0.35,9.28
-0.83,-2.56,0.96,0.16,0.19,10.62
-0.97,-2.02,0.89,-0.42,0.10,9.88
-0.52,-2.14,0.76,-0.59,-0.02,9.57
-0.18,-2.13,0.55,0.03,-0.01,10.08
-0.64,-1.53,0.35,-0.20,0.27,9.82
-1.04,-1.60,0.11,-0.17,-0.05,9.94
-0.73,-1.75,0.02,-0.21,-0.39,9.57
0.26,-2.05,-0.15,-0.17,-0.50,9.08
1.27,-1.91,-0.34,0.51,0.24,9.76
0.54,-1.81,-0.47,-0.24,0.33,9.47
0.19,-2.49,-0.67,-0.50,-0.04,9.33
0.93,-3.08,-0.87,-0.09,-0.20,9.80
1.02,-4.01,-0.98,-0.01,0.36,9.64
0.22,-4.18,-1.10,0.36,0.22,9.71
0.30,-3.74,-1.09,0.21,0.15,9.48
0.50,-3.53,-1.18,0.03,0.05,9.43
0.64,-3.34,-1.35,0.14,0.29,10.26
0.33,-3.44,-1.41,0.39,0.43,10.36
-0.23,-3.35,-1.40,0.38,0.35,10.33
-0.86,-3.07,-1.46,0.46,0.09,9.99
-0.55,-2.44,-1.45,0.12,0.09,10.06
-0.61,-2.89,-1.63,-0.14,0.18,10.03
-0.79,-3.64,-1.69,0.08,0.15,9.98
-0.90,-4.03,-1.72,0.64,0.02,9.96
-0.70,-3.69,-1.59,0.48,-0.01,9.51
-0.73,-3.76,-1.67,0.49,-0.16,9.60
-0.36,-3.76,-1.67,0.49,-0.19,9.73
0.12,-3.69,-1.72,0.32,-0.09,9.80
0.01,-3.78,-1.82,0.78,0.19,10.16
-0.30,-3.66,-1.89,0.58,0.19,9.84
-0.51,-3.61,-1.93,0.40,-0.06,9.42
-0.15,-3.80,-1.98,0.27,-0.31,9.10
1.25,-3.51,-2.13,1.06,0.24,9.84
0.19,-3.12,-2.10,0.74,0.40,9.84
-0.35,-3.25,-2.21,0.20,0.30,9.42
-0.07,-3.33,-2.27,0.61,-0.12,10.03
0.22,-2.33,-2.36,0.49,0.38,10.30
-0.51,-2.48,-2.47,0.22,0.42,10.21
-1.04,-2.71,-2.69,0.96,0.03,10.17
-0.79,-2.26,-2.64,1.21,-0.35,9.87
0.84,-1.42,-2.83,0.47,-0.11,9.04
1.26,-1.69,-2.92,0.64,0.18,9.49
1.11,-1.80,-2.99,1.02,0.41,9.94
0.20,-1.97,-3.10,1.15,0.49,9.94
-0.31,-2.42,-3.20,0.88,-0.42,9.44
0.67,-2.43,-3.31,1.06,-0.37,9.63
1.23,-2.33,-3.41,0.66,0.13,9.61
0.98,-2.50,-3.62,0.88,0.43,9.79
-0.39,-2.16,-3.56,1.17,0.30,9.81
-0.53,-1.72,-3.76,1.13,-0.00,9.52
-0.79,-1.22,-3.85,1.30,-0.36,9.80
-0.11,-0.67,-3.98,0.69,-0.33,9.61
0.15,-1.20,-4.51,0.97,0.43,10.61
-0.94,-1.46,-4.58,0.89,0.49,10.43
-1.85,-1.75,-4.73,1.13,0.15,10.06
-1.88,-1.70,-4.81,1.20,-0.31,9.98
-0.25,-1.15,-5.23,0.95,0.08,9.98
-0.98,-1.25,-5.34,0.95,0.46,10.29
-1.80,-1.33,-5.62,1.14,0.47,10.21
-2.34,-1.38,-5.75,1.36,-0.01,10.17
-1.25,-0.85,-6.09,1.40,-0.46,9.83
-0.83,-0.92,-6.21,1.04,0.04,9.68
-0.66,-1.40,-6.38,0.71,0.40,9.45
-1.53,-2.15,-6.74,1.14,0.18,9.64
-1.50,-2.43,-7.01,1.20,-0.46,8.87
-0.73,-2.45,-7.29,1.42,-0.43,8.85
0.08,-2.10,-7.42,1.78,-0.03,9.25
-0.04,-1.61,-7.52,1.73,0.50,9.57
-2.09,-1.38,-7.86,1.39,0.45,9.94
-2.56,-1.41,-8.24,1.46,-0.27,9.90
-2.16,-1.24,-8.48,1.67,-0.53,9.79
-0.97,-0.96,-8.51,1.61,-0.26,9.70
-1.43,-0.71,-8.89,1.97,0.45,10.20
-2.08,-0.61,-8.99,1.71,0.21,9.92
-2.41,-0.64,-9.31,1.82,-0.32,9.73
-1.70,-0.52,-9.48,1.78,-0.49,9.65
-0.34,-0.93,-9.98,2.04,-0.02,9.51
-0.56,-0.96,-9.99,2.35,0.34,9.77
-1.30,-0.82,-10.04,2.08,0.29,9.33
-1.68,-0.87,-10.35,2.15,-0.04,9.18
-1.05,-0.86,-10.54,1.92,-0.22,9.22
-0.91,-1.26,-10.83,1.83,-0.15,9.24
-0.97,-1.84,-10.86,1.97,-0.15,9.37
-0.93,-2.06,-11.00,2.15,-0.28,9.51
-0.82,-2.22,-11.17,2.24,-0.18,9.57
-1.00,-2.70,-11.53,2.01,-0.05,9.55
-1.24,-2.72,-11.65,2.44,0.14,10.02
-1.70,-2.60,-11.67,1.87,0.15,9.82
-1.58,-3.26,-12.06,2.60,-0.20,9.94
-1.12,-3.05,-11.92,2.33,-0.20,9.59
-0.99,-2.83,-12.21,2.39,-0.07,9.23
-0.80,-2.49,-12.30,2.64,-0.03,9.40
-0.93,-1.67,-12.62,2.63,-0.25,9.44
-0.67,-1.50,-12.67,2.63,-0.43,9.69
-0.22,-1.55,-12.71,2.54,-0.52,9.54
0.42,-1.74,-12.87,2.72,-0.37,9.53
0.67,-1.62,-13.00,2.73,-0.14,9.39
0.71,-1.47,-13.20,2.93,-0.19,9.39
1.02,-1.37,-13.16,2.78,-0.26,9.29
1.23,-1.40,-13.31,2.77,-0.29,9.14
2.44,-1.19,-13.35,3.00,0.02,9.43
2.10,-0.89,-13.40,3.08,0.21,9.64
1.61,-0.58,-13.55,3.11,0.34,10.02
0.95,-0.59,-13.69,2.84,-0.08,10.13
0.95,-0.59,-13.61,3.06,-0.20,10.55
0.76,-0.49,-13.61,2.92,-0.12,10.40
0.74,-0.70,-13.68,2.90,-0.08,10.10
0.74,-0.84,-13.58,3.02,-0.17,10.17
0.64,-0.44,-13.68,3.23,-0.19,10.21
0.77,-0.01,-13.65,3.09,-0.09,10.01
0.88,0.17,-13.69,3.14,0.02,10.16
0.54,0.16,-13.65,3.17,0.15,10.28
-0.36,0.19,-13.68,3.23,0.00,10.50
-0.79,0.15,-13.66,3.12,-0.11,10.36
-0.64,-0.01,-13.69,3.17,-0.18,10.35
-0.38,-0.15,-13.59,3.07,-0.03,10.38
-1.44,-0.61,-13.55,3.34,0.10,10.12
-1.67,-0.40,-13.49,3.31,-0.26,9.91
-1.60,-0.10,-13.47,3.18,-0.39,9.54
-1.37,0.20,-13.47,3.21,-0.23,9.71
-1.56,0.50,-13.52,3.02,0.60,10.23
-2.84,0.06,-13.39,2.99,0.52,10.41
-3.84,-0.26,-13.42,3.00,-0.05,10.28
-3.37,-0.45,-13.35,2.96,-0.55,9.66
-1.52,0.06,-13.31,3.27,-0.03,9.40
-1.93,0.35,-13.28,3.06,0.52,9.04
-3.07,0.67,-13.37,3.33,0.32,9.18
-3.67,1.28,-13.32,3.56,-0.23,9.29
-2.38,2.09,-13.24,3.23,-0.65,9.49
-1.54,1.83,-13.22,2.80,-0.36,9.45
-1.12,1.16,-13.26,2.60,-0.04,9.41
-1.14,0.57,-13.33,2.95,0.00,9.55
-1.44,0.03,-13.38,2.95,-0.26,8.65
-0.95,-0.09,-13.43,3.17,-0.34,8.58
-0.00,0.28,-13.44,3.14,-0.29,8.65
0.64,0.56,-13.41,3.13,-0.04,8.79
-0.42,0.81,-13.55,2.74,0.44,9.76
-1.43,0.49,-13.65,2.60,0.07,9.85
-1.34,-0.16,-13.69,2.65,-0.34,9.91
-0.55,-0.55,-13.57,2.99,-0.57,10.21
0.16,-0.53,-13.57,2.78,0.10,9.41
-0.02,-0.26,-13.53,3.05,0.21,9.56
-0.76,0.41,-13.62,3.17,0.06,9.50
-0.84,0.81,-13.66,2.95,-0.34,9.15
1.15,0.92,-13.64,3.23,-0.44,9.53
1.38,0.93,-13.55,3.15,0.07,9.70
0.86,0.81,-13.60,2.99,0.32,9.57
0.21,0.66,-13.59,2.94,0.08,9.37
0.83,1.12,-13.73,3.34,-0.50,9.23
1.41,1.35,-13.69,3.01,-0.33,9.09
1.67,1.32,-13.75,3.06,0.02,9.39
1.23,1.33,-13.76,3.22,0.16,10.02
0.32,0.50,-13.86,2.52,-0.06,9.99
0.63,-0.10,-13.92,2.64,-0.23,10.43
0.89,-0.49,-14.02,2.87,-0.10,10.72
0.63,-0.91,-14.05,2.79,0.21,10.72
-0.43,-1.80,-14.09,2.83,0.23,10.61
-0.89,-1.93,-14.08,3.02,0.03,10.57
-0.97,-1.73,-14.03,2.95,-0.18,10.37
-1.02,-1.55,-14.10,3.13,-0.19,10.26
-0.87,-0.62,-14.06,3.12,-0.13,10.25
-1.17,-0.38,-14.06,3.04,0.09,9.82
-1.32,-0.25,-13.98,3.01,-0.02,9.59
-1.57,0.11,-14.06,3.47,-0.33,9.46
-0.96,1.17,-13.99,3.27,-0.32,8.80
-0.69,1.37,-14.10,3.16,-0.13,8.91
-0.89,1.49,-14.15,3.32,0.11,9.26
-1.26,1.40,-14.12,3.26,0.09,9.45
-1.00,0.68,-14.21,3.05,-0.41,9.06
-0.27,0.57,-14.27,3.21,-0.45,9.10
0.36,0.83,-14.41,3.26,-0.02,9.18
-0.05,1.14,-14.45,3.36,0.36,9.56
-1.59,1.44,-14.52,3.12,0.09,10.00
-1.63,1.09,-14.45,2.88,-0.16,10.34
-1.42,0.53,-14.59,2.83,-0.15,10.80
-1.30,-0.40,-14.60,2.59,-0.00,10.90
-1.47,-2.15,-14.63,2.89,-0.20,10.50
-1.40,-2.18,-14.61,3.25,-0.26,10.05
-1.08,-1.79,-14.61,3.44,-0.19,9.46
-0.64,-1.13,-14.43,3.59,-0.09,9.26
-1.13,0.83,-14.34,3.64,0.06,9.20
-1.28,1.52,-14.29,3.36,-0.17,9.24
-1.05,1.85,-14.29,3.09,-0.35,9.10
-0.68,1.68,-14.25,3.11,-0.44,9.15
0.23,1.12,-14.16,3.22,-0.11,9.04
0.20,0.91,-14.03,3.25,0.00,9.07
-0.15,0.93,-14.06,3.44,0.08,9.20
-0.39,1.12,-14.08,3.38,0.13,9.14
-0.58,1.06,-14.08,3.14,-0.12,9.80
-0.49,0.66,-14.00,2.89,0.02,10.05
-0.42,-0.24,-13.91,2.87,0.03,10.31
-0.29,-0.77,-13.76,3.25,-0.02,10.82
-0.76,-0.98,-13.55,2.89,-0.08,10.16
-0.55,-1.08,-13.54,2.91,-0.24,9.82
0.09,-0.88,-13.44,3.04,-0.31,9.60
0.51,-0.62,-13.43,3.49,-0.26,9.62
0.36,0.18,-13.16,3.01,-0.03,9.37
0.41,0.08,-13.06,3.11,-0.10,9.48
0.51,0.24,-13.02,3.21,-0.13,9.87
0.44,0.49,-12.95,2.92,-0.05,9.63
0.25,0.41,-12.90,3.03,-0.36,9.34
0.99,0.42,-12.83,3.05,-0.41,8.92
1.84,0.59,-12.76,3.44,-0.20,8.99
1.29,2.02,-12.70,3.08,0.34,9.11
0.54,2.25,-12.70,3.13,0.16,9.50
0.32,2.46,-12.67,2.98,-0.14,10.07
0.55,2.33,-12.70,2.74,-0.12,10.27
0.63,1.68,-12.62,2.68,0.03,10.66
0.25,1.06,-12.55,2.81,0.19,10.94
-0.80,0.21,-12.46,2.63,0.04,10.46
-0.69,0.05,-12.45,3.06,-0.22,10.39
-0.48,0.29,-12.33,3.27,-0.03,10.45
-1.54,0.74,-12.31,2.74,0.17,9.86
-1.76,0.66,-12.21,2.60,-0.27,9.63
-1.23,0.83,-12.24,2.93,-0.49,9.72
-0.67,0.98,-12.23,3.00,-0.19,9.68
-1.12,0.58,-12.18,2.75,0.03,9.38
-1.54,0.53,-12.21,2.70,-0.14,9.25
-1.70,0.56,-12.33,2.83,-0.36,9.21
-1.20,0.64,-12.36,2.83,-0.38,9.20
-0.62,0.64,-12.38,2.76,-0.15,9.14
-1.35,0.95,-12.40,2.74,0.25,9.75
-1.83,1.02,-12.46,2.67,0.06,9.81
-1.74,0.87,-12.39,2.74,-0.28,10.12
-1.02,0.55,-12.48,2.50,-0.21,10.31
-0.61,-0.05,-12.41,2.32,-0.24,10.13
-0.42,-0.47,-12.51,2.74,-0.33,10.29
-0.03,-0.49,-12.36,2.94,-0.24,10.12
0.46,-0.30,-12.18,2.95,-0.23,9.85
0.53,0.33,-12.18,2.95,-0.30,9.66
0.65,0.59,-12.31,2.56,-0.22,9.08
1.13,0.39,-12.29,2.59,-0.31,9.01
1.75,0.25,-12.28,2.94,-0.56,9.15
3.14,0.59,-12.04,2.97,0.01,8.98
3.06,0.85,-11.87,2.87,0.45,9.01
2.35,1.36,-11.75,3.15,0.74,9.24
-0.20,3.41,-11.47,3.21,0.29,9.37
-0.92,4.34,-11.59,3.02,-0.01,9.28
-1.23,4.87,-11.50,2.80,-0.22,9.41
-0.79,4.97,-11.47,2.98,-0.08,9.98
-1.39,3.19,-10.93,2.56,0.44,10.53
-2.22,2.41,-10.83,2.71,-0.03,10.71
-2.59,2.21,-10.80,2.40,-0.52,10.20
-2.29,1.94,-10.91,2.13,-0.88,9.77
0.01,0.79,-11.25,2.41,-0.22,10.04
0.24,-0.30,-11.03,2.41,0.44,10.48
-0.69,-1.14,-10.79,2.38,0.62,10.96
-1.76,-1.34,-10.47,2.55,0.42,11.37
-3.73,-0.99,-10.43,2.00,-0.49,10.22
-3.35,-0.53,-10.46,2.04,-0.73,9.73
-2.59,0.74,-10.53,2.84,-0.44,10.21
-2.66,2.01,-10.55,3.12,0.14,10.57
-4.63,2.67,-9.98,2.51,0.29,10.73
-5.10,2.39,-9.73,2.47,-0.39,10.14
-4.49,2.19,-9.53,2.36,-0.86,9.26
-3.36,2.58,-9.46,2.41,-0.92,8.25
-0.52,3.47,-9.18,3.17,-0.54,6.76
0.54,4.56,-8.87,3.41,-0.46,6.61
1.05,5.81,-8.72,3.42,-0.12,6.46
1.27,7.37,-8.39,3.78,0.35,7.18
-1.25,10.09,-7.62,3.50,0.57,8.99
-1.87,10.40,-7.22,2.40,0.32,9.59
-2.22,9.98,-6.88,2.11,-0.02,10.77
-2.39,9.26,-6.76,1.56,-0.22,11.71
-2.25,5.14,-6.38,1.15,-0.14,11.63
-1.40,3.08,-5.83,2.18,-0.20,11.60
-1.36,2.48,-5.38,2.50,-0.09,10.85
-1.94,2.65,-4.96,1.99,0.25,9.33
-2.37,3.01,-4.33,1.48,-0.83,7.66
-0.30,4.09,-4.15,1.88,-1.25,7.85
1.80,4.96,-3.81,2.01,-0.75,8.26
3.01,5.27,-3.38,1.96,-0.04,8.96
1.15,5.19,-2.48,1.36,0.30,9.77
0.38,5.36,-2.20,1.08,0.29,9.88
-0.38,5.38,-1.87,1.04,0.11,9.93
-0.34,5.56,-1.63,1.26,0.04,10.14
-0.77,6.18,-0.91,1.50,-0.09,10.67
-1.30,6.16,-0.49,0.99,-0.02,10.37
-1.39,5.73,-0.08,0.67,-0.22,10.07
-0.94,5.48,0.12,0.98,-0.36,10.30
-0.40,5.33,0.78,0.32,-0.25,9.75
-0.14,4.67,0.99,0.65,-0.30,9.73
0.41,4.44,1.26,0.80,-0.30,9.54
0.57,4.51,1.59,0.36,-0.24,8.98
0.75,4.95,2.02,0.45,-0.15,9.19
1.11,5.11,2.26,0.22,0.02,9.38
0.92,5.05,2.46,0.00,0.06,9.74
0.38,4.82,2.64,-0.10,0.01,10.08
0.11,3.59,2.84,-0.80,-0.24,9.70
0.51,3.10,2.95,-0.42,-0.39,9.67
1.24,3.11,3.19,-0.13,-0.21,9.78
1.21,3.18,3.42,-0.32,0.18,9.81
-0.38,2.95,3.58,-0.53,0.12,10.10
-0.60,2.69,3.71,-0.72,-0.21,9.96
-0.11,2.27,3.83,-1.01,-0.45,9.85
0.43,1.86,3.87,-0.84,-0.34,9.94
0.47,1.24,4.16,-0.63,0.10,10.03
0.10,1.04,4.25,-0.74,0.05,9.93
-0.12,1.07,4.28,-0.85,-0.28,9.87
0.11,1.21,4.23,-0.73,-0.48,9.88
0.47,1.05,4.31,-1.07,-0.04,10.19
0.12,0.60,4.27,-1.14,-0.08,10.00
0.17,0.18,4.25,-0.93,-0.19,9.86
0.48,0.26,4.26,-0.68,-0.19,9.84
0.37,0.36,4.09,-1.31,-0.31,9.34
0.69,0.10,3.94,-1.21,-0.45,9.56
1.26,0.16,3.81,-0.91,-0.25,9.88
1.42,0.10,3.79,-0.94,0.14,9.96
0.25,-0.42,3.63,-0.78,0.16,10.48
-0.31,-0.22,3.56,-0.59,-0.05,10.66
-0.43,0.06,3.60,-1.00,0.02,10.37
-0.69,-0.04,3.51,-1.26,0.09,10.25
-1.21,-0.31,3.29,-0.49,0.07,10.06
-1.54,-0.03,3.33,-0.46,-0.00,9.78
-1.88,0.19,3.34,-0.78,-0.14,9.36
-1.61,0.22,3.30,-0.68,-0.34,9.39
-1.07,0.11,3.20,-0.97,-0.06,9.21
-0.94,-0.41,3.31,-1.03,-0.05,9.06
-1.02,-0.75,3.30,-0.50,-0.31,9.30
-0.96,-0.61,3.32,-0.36,-0.41,9.13
0.28,-0.44,3.48,-0.64,-0.24,8.91
0.28,-0.40,3.54,-0.47,-0.16,9.31
0.45,-0.17,3.70,-0.75,-0.06,9.40
0.41,-0.17,3.67,-0.65,-0.07,9.71
0.57,-0.23,4.02,-0.73,-0.19,10.09
0.58,-0.41,3.99,-0.63,-0.22,10.24
0.48,-0.61,4.14,-0.55,-0.08,10.46
0.44,-0.50,4.38,-0.58,0.23,10.55
-0.18,-0.64,4.59,-0.57,0.18,10.55
-0.52,-0.64,4.69,-0.59,-0.08,10.19
-0.36,-0.58,4.88,-0.25,-0.40,9.99
0.42,-0.19,5.12,-0.39,-0.52,9.63
1.20,0.65,5.34,-0.51,-0.03,9.26
1.11,0.98,5.47,-0.48,0.08,9.27
0.80,1.18,5.62,-0.36,-0.09,9.10
0.89,1.27,5.92,-0.54,-0.40,8.91
2.09,1.77,6.06,-0.49,-0.30,9.18
2.27,2.07,6.35,-0.71,0.20,9.69
1.42,1.97,6.39,-0.96,0.40,9.86
0.62,1.53,6.56,-0.94,0.18,10.12
0.81,1.36,6.81,-0.84,-0.31,10.08
1.18,1.28,7.06,-0.82,-0.06,10.17
1.11,1.28,7.21,-0.92,0.25,10.19
0.34,1.57,7.32,-0.62,0.33,10.44
-0.45,1.95,7.58,-0.86,0.18,10.27
-0.39,2.06,7.95,-0.83,-0.41,10.39
0.12,2.11,8.15,-1.12,-0.39,10.40
0.44,1.97,8.34,-1.21,-0.13,10.40
-0.25,1.02,8.73,-1.33,-0.04,9.69
-0.04,0.98,8.85,-1.01,-0.43,9.39
0.19,1.56,9.11,-0.88,-0.68,9.27
0.96,2.27,9.17,-1.07,-0.46,8.84
1.63,2.49,9.57,-1.46,0.13,9.61
0.86,2.49,9.58,-1.35,0.12,9.97
0.15,2.40,9.71,-1.37,-0.01,10.31
0.12,2.34,9.79,-1.95,-0.30,10.00
1.25,1.76,9.91,-1.49,-0.08,9.99
1.19,1.96,9.97,-1.50,0.29,10.02
0.32,2.35,9.96,-1.42,0.40,10.02
-0.53,2.58,10.10,-1.57,0.14,10.18
-0.35,2.29,10.11,-2.00,-0.35,10.24
0.41,1.93,10.32,-1.75,-0.11,10.61
0.25,1.78,10.45,-1.50,0.27,10.60
-0.55,1.83,10.57,-1.77,0.43,10.12
-1.28,1.96,10.68,-1.54,-0.57,9.93
-0.31,2.42,10.78,-2.04,-0.46,9.89
0.23,2.36,10.82,-2.28,0.01,9.81
-0.47,1.75,10.82,-1.95,0.36,10.04
-1.69,1.41,10.90,-1.96,-0.30,9.57
-1.18,1.53,10.99,-1.79,-0.47,9.78
-0.91,1.67,11.03,-2.34,-0.28,9.87
-0.92,1.40,10.97,-2.59,0.08,9.91
-2.11,0.50,10.93,-2.23,0.10,9.92
-2.29,0.73,10.91,-2.10,-0.20,9.37
-1.82,0.92,11.02,-1.99,-0.49,9.06
-1.05,1.28,10.99,-1.90,-0.48,9.11
-0.12,2.04,11.10,-2.41,0.19,9.55
-0.94,1.91,10.99,-2.18,0.29,10.12
-1.59,1.95,11.07,-2.03,0.14,10.34
-2.01,1.90,11.08,-2.32,-0.20,9.76
-0.82,1.65,11.05,-1.83,-0.19,9.44
-0.74,2.01,11.08,-1.83,0.03,9.86
-1.29,2.02,11.01,-2.49,0.24,9.93
-2.09,1.15,10.95,-2.75,0.08,9.85
-1.64,-0.05,10.93,-2.07,-0.52,9.26
-0.78,0.19,10.97,-1.92,-0.47,8.88
-0.16,0.51,11.02,-2.10,-0.10,8.79
-0.36,0.60,11.03,-2.22,0.03,9.04
-0.37,0.22,10.90,-2.51,-0.33,8.92
0.18,-0.17,10.87,-2.40,-0.39,8.81
0.62,-0.12,10.86,-2.14,-0.41,8.75
1.43,0.43,10.89,-1.80,-0.41,9.17
1.64,1.57,10.88,-2.44,0.13,10.11
1.12,1.20,10.79,-2.53,0.13,10.43
0.76,0.92,10.67,-2.21,0.09,10.91
0.50,0.81,10.74,-2.15,0.09,10.93
0.01,-0.03,10.76,-2.29,-0.14,10.25
0.31,-0.11,10.84,-1.83,-0.26,10.01
0.67,0.29,10.90,-1.93,-0.13,9.68
0.72,0.61,10.90,-2.23,-0.14,9.49
1.13,0.82,10.84,-2.02,-0.27,9.91
1.38,0.77,10.89,-2.14,-0.16,9.49
1.77,0.48,10.91,-2.36,-0.11,9.11
1.81,0.39,10.89,-2.03,-0.14,9.18
1.35,1.08,10.84,-2.32,-0.17,9.11
1.46,0.66,10.78,-2.65,-0.31,9.27
2.06,-0.20,10.73,-2.47,-0.17,9.78
2.34,-0.82,10.76,-2.46,0.06,10.12
1.21,-1.58,10.68,-2.31,0.22,10.23
0.89,-1.66,10.66,-2.28,0.02,10.39
0.49,-1.39,10.55,-1.97,-0.09,10.53
0.50,-1.01,10.68,-2.01,0.02,10.62
-0.29,-1.28,10.63,-2.30,0.30,10.92
-1.02,-1.18,10.67,-2.01,0.14,10.99
-1.61,-0.91,10.70,-2.00,-0.01,10.60
-1.76,-0.83,10.75,-2.36,-0.19,9.77
-0.79,-0.53,10.61,-1.42,-0.60,9.91
-0.34,0.16,10.71,-1.79,-0.27,9.93
-0.24,0.05,10.71,-2.70,0.04,9.53
-0.54,-0.62,10.59,-2.31,-0.07,10.07
-0.54,-0.63,10.70,-2.15,-0.32,9.63
-0.11,-0.81,10.63,-2.45,-0.45,9.01
0.51,-0.94,10.52,-1.91,-0.39,9.02
1.07,-0.38,10.56,-1.61,-0.12,9.27
0.15,-0.00,10.38,-2.44,0.27,9.36
-0.46,-0.35,10.25,-2.16,-0.02,10.26
-0.45,-0.53,10.15,-2.11,-0.21,10.50
-0.10,-0.91,10.20,-2.46,-0.23,10.27
-0.30,-1.40,10.07,-2.01,0.34,10.14
-1.02,-1.15,9.99,-1.90,0.21,10.23
-1.72,-0.97,9.88,-1.97,-0.10,10.07
-1.47,-0.84,9.90,-2.15,-0.34,9.83
-0.42,-0.53,9.81,-1.73,0.04,9.43
-0.80,-0.02,9.81,-1.72,0.09,9.34
-1.27,0.33,9.67,-1.92,-0.22,9.23
-0.84,0.34,9.60,-2.11,-0.51,9.32
0.36,-0.22,9.34,-2.07,-0.18,9.53
0.19,-0.69,9.30,-2.08,0.03,9.35
-0.06,-1.11,9.22,-2.00,-0.03,9.17
0.21,-0.94,8.98,-1.75,-0.32,9.56
0.51,-0.85,8.85,-1.94,-0.20,9.38
0.71,-1.00,8.76,-2.30,-0.01,9.41
0.45,-1.32,8.50,-2.17,0.07,9.70
0.25,-1.45,8.28,-1.95,0.13,9.96
0.03,-1.47,8.11,-1.93,0.13,9.86
-0.54,-1.47,7.94,-1.67,-0.04,9.90
-0.60,-1.28,7.82,-1.71,-0.14,10.20
-0.85,-1.10,7.60,-1.82,-0.16,10.36
-0.66,-1.19,7.27,-1.89,-0.07,10.44
-0.77,-1.26,7.04,-1.87,0.06,10.10
-0.94,-1.31,6.84,-1.61,0.01,9.81
-1.21,-1.20,6.71,-1.30,-0.37,9.81
0.06,-0.58,6.37,-1.59,-0.41,9.73
0.30,-0.91,6.17,-1.94,-0.08,9.73
-0.07,-1.53,5.89,-1.79,0.07,9.75
-0.22,-1.99,5.67,-1.58,-0.11,9.69
0.35,-2.32,5.20,-1.43,-0.48,9.19
0.76,-2.32,5.00,-1.41,-0.32,9.28
0.97,-2.42,4.77,-1.33,-0.01,9.58
0.86,-2.54,4.50,-1.52,0.24,9.88
-0.49,-2.99,3.96,-1.30,-0.11,10.14
-0.51,-2.79,3.78,-1.05,-0.42,10.12
-0.13,-2.44,3.59,-1.07,-0.42,9.83
0.35,-2.08,3.38,-1.03,-0.13,9.82
-0.75,-1.72,3.01,-0.93,0.12,10.17
-1.13,-1.71,2.81,-1.00,-0.08,10.02
-1.10,-1.66,2.61,-0.88,-0.36,9.94
-0.71,-1.42,2.40,-0.73,-0.44,9.84
-0.54,-1.27,2.07,-0.80,-0.08,9.89
-0.84,-1.60,1.87,-0.99,-0.06,9.71
-0.48,-2.24,1.72,-0.89,-0.28,9.41
0.01,-2.54,1.49,-0.39,-0.54,9.60
0.43,-2.43,1.21,-0.98,-0.22,8.73
0.62,-2.79,0.93,-0.44,-0.21,9.16
0.46,-2.44,0.80,0.13,-0.06,9.83
-0.04,-1.81,0.73,-0.53,0.04,9.60
-0.43,-2.60,0.30,-0.40,-0.46,9.89
0.29,-2.30,0.18,-0.34,-0.39,10.05
0.32,-2.11,0.04,-0.35,-0.07,9.92
-0.11,-2.28,-0.15,-0.29,0.14,9.95
-0.48,-2.14,-0.30,0.07,-0.30,9.90
-0.25,-2.01,-0.30,0.09,-0.43,9.77
0.35,-1.71,-0.28,0.02,-0.35,9.70
0.56,-1.32,-0.30,0.14,-0.15,9.79
0.14,-0.62,-0.51,0.03,-0.28,9.74
0.39,-0.84,-0.54,-0.05,-0.44,9.45
1.12,-1.15,-0.56,0.13,-0.54,9.32
1.63,-1.18,-0.58,0.58,-0.55,9.49
1.91,-0.39,-0.42,0.25,-0.15,9.45
1.74,-0.19,-0.39,0.44,-0.19,9.98
2.02,0.13,-0.33,0.34,-0.17,10.19
2.02,0.16,-0.29,0.07,-0.03,10.05
1.83,0.12,-0.19,0.55,-0.20,10.05
1.96,0.66,-0.17,0.51,-0.23,9.79
2.35,1.13,-0.02,0.56,-0.31,9.75
2.42,1.63,0.09,0.77,-0.23,10.13
2.18,2.16,0.40,0.14,0.19,10.55
1.46,1.82,0.45,0.22,0.10,11.00
0.95,1.57,0.61,0.18,-0.08,11.14
0.50,1.18,0.68,0.17,-0.32,10.92
1.22,0.61,0.96,0.31,-0.20,10.35
0.96,0.74,1.08,0.72,0.05,10.52
0.50,1.23,1.29,0.26,0.19,10.36
-0.20,1.22,1.35,-0.17,0.08,10.18
-0.84,0.41,1.51,-0.08,-0.34,10.34
-0.48,-0.10,1.55,-0.33,-0.37,9.84
-0.03,-0.43,1.65,-0.17,-0.20,9.67
-0.13,-0.48,1.74,0.31,-0.09,9.61
-0.82,0.41,1.80,-0.23,-0.23,8.90
-0.50,0.87,1.77,-0.11,-0.29,9.13
-0.21,1.32,1.74,-0.28,-0.05,9.60
-0.77,1.46,1.73,-0.34,0.15,9.88
-1.64,1.39,1.77,-0.28,-0.08,10.13
-1.83,1.59,1.77,-0.16,-0.25,10.09
-2.02,1.80,1.73,-0.12,-0.19,10.16
-1.98,2.10,1.73,-0.26,0.06,10.27
-2.89,1.52,1.72,-0.52,0.04,10.13
-2.85,1.20,1.64,-0.45,-0.30,9.78
-2.50,1.01,1.70,0.10,-0.55,9.72
-2.16,1.22,1.79,-0.06,-0.50,9.64
-1.71,0.81,1.67,-0.47,-0.10,9.39
-1.85,0.47,1.69,-0.32,-0.14,9.76
-2.14,0.19,1.66,-0.54,-0.12,9.57
-2.23,-0.46,1.62,-0.86,-0.16,9.18
-1.63,-1.51,1.57,-0.35,-0.59,8.98
-0.82,-1.41,1.62,-0.44,-0.30,8.74
-0.67,-1.19,1.58,-0.48,0.00,8.78
-1.19,-0.70,1.45,-0.24,0.21,9.24
-2.23,-0.09,1.43,-0.90,-0.23,9.52
-1.54,-0.57,1.34,-0.80,-0.48,9.57
-0.77,-0.74,1.40,-0.02,-0.45,9.93
-0.71,-0.31,1.53,-0.08,-0.20,9.69
-0.52,0.09,1.43,-0.25,-0.55,8.98
0.50,0.55,1.46,0.01,-0.61,9.23
1.54,1.08,1.53,-0.28,-0.24,9.41
1.34,1.06,1.49,-0.40,0.04,9.76
0.62,0.66,1.46,-0.19,-0.54,9.77
1.39,0.66,1.42,-0.22,-0.68,9.50
2.49,0.48,1.48,-0.37,-0.35,9.31
2.79,0.27,1.46,-0.30,0.05,9.66
1.36,0.03,1.38,-0.56,0.21,9.76
0.97,-0.63,1.33,-0.55,-0.35,9.67
1.41,-1.17,1.29,-0.56,-0.57,9.34
2.54,-1.47,1.39,-0.57,-0.22,9.19
1.26,-1.38,1.17,-0.29,0.43,9.59
0.56,-1.21,1.25,-0.51,0.18,9.47
0.02,-1.12,1.11,-0.26,-0.22,9.81
0.16,-0.86,1.15,-0.30,-0.27,10.06
0.26,-1.24,1.11,-0.37,-0.20,10.03
0.64,-1.11,1.22,-0.07,-0.16,10.26
0.67,-0.25,1.18,0.17,-0.09,10.58
0.06,0.56,1.18,-0.05,0.09,10.69
-1.57,0.54,1.12,-0.11,-0.23,11.20
-1.30,0.55,1.16,-0.10,-0.42,11.17
-0.94,0.43,1.18,-0.31,-0.35,10.64
-0.84,0.06,1.18,-0.13,-0.25,10.43
-1.33,-0.21,1.00,-0.15,-0.33,10.29
-1.52,-0.45,1.04,-0.21,-0.52,10.16
-1.12,-0.75,1.01,-0.41,-0.69,9.83
-0.36,-1.08,0.93,-0.25,-0.47,9.66
-0.32,-1.33,0.87,-0.28,-0.25,8.94
-0.48,-1.09,0.71,-0.12,-0.56,8.76
-0.01,-0.58,0.61,-0.00,-0.64,8.52
1.61,0.18,0.54,0.03,-0.23,8.84
1.37,0.79,0.59,0.27,-0.01,9.26
0.66,1.63,0.55,0.35,0.12,9.72
-0.16,2.14,0.53,-0.27,0.03,9.83
-0.58,1.91,0.42,-0.61,-0.31,9.94
0.57,1.34,0.29,0.12,-0.32,10.79
0.52,0.92,0.44,-0.43,0.15,10.00
-0.38,0.36,0.45,-0.10,-0.14,9.95
-0.62,0.67,0.41,0.50,-0.59,10.15
0.22,1.13,0.43,-0.24,-0.48,9.43
0.66,1.07,0.43,-0.09,-0.48,9.97
0.70,0.69,0.51,-0.21,-0.17,10.08
0.36,-0.14,0.47,-0.45,-0.08,9.83
0.21,-1.36,0.52,-0.01,-0.70,8.91
0.96,-0.83,0.55,0.34,-0.82,9.06
1.27,0.13,0.47,0.20,-0.50,9.20
1.07,0.68,0.46,-0.08,-0.07,9.35
-1.06,0.60,0.31,-0.26,-0.47,10.95
-1.18,0.35,0.35,-0.49,-0.88,11.22
-0.64,-0.63,0.34,-0.55,-0.93,11.14
0.01,-1.33,0.44,-0.11,-0.40,10.99
-0.97,-0.65,0.63,0.30,0.25,9.95
-2.06,0.56,0.59,0.28,-0.09,9.89
-2.26,1.56,0.54,-0.01,-0.59,9.63
-1.52,1.66,0.48,-0.06,-0.91,9.76
0.05,0.58,0.67,-0.35,-0.06,9.70
-0.29,-0.33,0.67,-0.07,0.08,9.48
-0.94,-0.20,0.65,0.39,-0.26,9.70
-1.31,0.35,0.64,-0.24,-0.51,8.81
-0.40,-0.01,0.46,0.13,-0.93,9.15
0.30,0.24,0.51,0.14,-0.69,9.40
0.57,0.01,0.61,-0.36,-0.37,9.30
0.09,-0.65,0.61,-0.38,-0.48,9.48
0.14,-0.50,0.41,-0.16,-0.84,9.57
0.60,-0.36,0.37,-0.23,-0.54,9.75
0.62,-0.37,0.41,-0.22,-0.16,10.04
0.24,-0.44,0.47,-0.23,0.05,10.27
-1.08,-0.26,0.48,0.05,-0.22,10.74
-1.24,-0.17,0.51,-0.34,-0.39,10.54
-1.01,-0.61,0.48,-0.65,-0.50,9.93
-0.27,-1.11,0.44,-0.37,-0.56,9.71
-0.47,-0.02,0.50,0.45,-0.25,9.67
-1.40,0.49,0.57,-0.05,-0.39,9.28
-1.87,0.58,0.50,-0.20,-0.91,9.16
-1.08,0.64,0.47,-0.14,-1.21,9.24
0.22,0.26,0.41,-0.24,-0.43,9.56
-0.53,-0.26,0.39,-0.21,-0.26,9.59
-1.05,-0.80,0.36,-0.24,-0.54,9.24
-0.52,-1.15,0.38,-0.33,-0.87,8.88
0.98,-0.55,0.34,0.23,-0.40,9.82
0.57,-0.26,0.36,-0.21,0.05,10.15
-0.34,-0.51,0.31,-0.39,0.04,10.51
-0.95,-0.84,0.26,-0.32,-0.32,10.84
-1.04,-1.19,0.19,-0.20,-0.96,10.66
-0.49,-1.13,0.26,0.01,-0.85,10.62
-0.52,-1.05,0.33,-0.05,-0.56,10.32
-0.94,-0.94,0.41,-0.06,-0.45,10.22
-1.59,-0.35,0.35,-0.19,-0.77,9.97
-0.96,-0.79,0.37,-0.31,-0.90,9.45
-0.15,-1.22,0.32,-0.28,-0.95,9.16
0.51,-1.22,0.34,0.16,-0.61,9.01
-0.12,-0.42,0.45,0.26,-0.08,8.83
-0.66,-0.16,0.50,-0.01,-0.44,8.61
-0.78,-0.08,0.49,-0.01,-0.98,8.63
-0.01,0.13,0.42,-0.03,-1.16,8.82
1.00,-0.15,0.41,-0.26,-0.63,9.62
0.27,-0.85,0.36,-0.26,-0.57,9.92
-0.18,-1.26,0.35,-0.13,-0.79,10.13
-0.29,-1.28,0.34,-0.08,-0.99,10.03
0.04,-0.69,0.34,0.06,-0.61,10.31
-0.17,-0.50,0.39,-0.09,-0.26,10.59
-1.06,-0.64,0.36,-0.14,-0.23,10.68
-1.35,-0.73,0.38,0.03,-0.61,10.64
-0.71,-0.24,0.56,0.29,-1.04,9.98
-0.05,0.29,0.60,-0.05,-0.86,9.74
0.18,0.47,0.50,-0.09,-0.69,9.64
-0.10,0.40,0.48,0.32,-0.72,9.86
-0.49,0.79,0.45,-0.29,-1.11,9.29
-0.18,0.48,0.42,-0.04,-1.32,9.28
0.74,0.30,0.41,0.10,-1.30,9.40
1.41,0.30,0.42,-0.05,-0.89,9.39
0.81,-0.45,0.35,-0.27,-0.57,9.24
1.00,-0.85,0.29,-0.13,-0.69,9.15
1.35,-0.98,0.33,-0.06,-0.69,9.38
1.16,-0.80,0.26,-0.14,-0.47,9.68
0.45,-1.35,0.23,-0.26,-0.63,9.81
0.56,-1.31,0.25,0.16,-0.78,10.05
0.90,-0.72,0.38,0.10,-0.78,9.88
0.78,-0.21,0.30,0.18,-0.71,10.04
-0.32,0.78,0.32,-0.28,-0.59,10.57
-0.56,0.36,0.26,-0.45,-0.95,10.58
0.00,-0.11,0.28,-0.07,-1.09,10.72
0.41,-0.10,0.36,0.23,-0.78,10.63
-0.03,0.17,0.50,-0.06,-0.64,9.68
-0.18,0.32,0.43,0.17,-0.86,9.79
0.22,0.75,0.37,0.29,-0.85,9.85
0.38,0.87,0.41,0.15,-0.72,9.82
-0.09,0.57,0.50,-0.20,-0.79,9.97
-0.07,-0.02,0.45,-0.08,-1.00,9.66
0.43,-0.08,0.47,0.24,-1.05,9.84
0.49,0.34,0.40,-0.11,-0.67,9.77
-0.15,0.29,0.32,-0.09,-0.77,10.26
-0.13,-0.08,0.24,-0.61,-0.88,9.68
0.53,-1.08,0.15,-0.55,-0.95,9.35
1.11,-1.55,0.13,0.12,-0.73,9.69
-0.24,-0.80,0.09,0.08,-0.31,9.57
-0.88,-0.40,-0.02,0.18,-0.59,9.68
-0.27,-0.07,0.07,-0.18,-0.67,9.71
-0.30,-0.09,0.03,-0.24,-0.61,10.20
-1.36,-0.33,-0.06,0.04,-0.54,10.16
-1.86,-0.21,-0.14,0.20,-1.04,9.77
-1.16,0.31,-0.09,0.14,-1.33,9.08
0.00,0.68,-0.09,0.29,-1.34,8.98
0.22,1.64,-0.13,0.11,-0.49,9.65
-0.46,1.22,-0.30,-0.39,-0.81,9.27
0.03,0.67,-0.42,0.00,-1.25,9.34
1.22,0.81,-0.41,0.33,-1.22,9.53
1.88,0.90,-0.47,0.01,-0.67,9.34
0.71,-0.22,-0.61,0.04,-0.61,9.69
0.65,-0.00,-0.69,0.12,-1.00,9.75
1.48,0.08,-0.76,-0.18,-1.02,9.74
1.23,-0.62,-0.82,-0.06,-0.32,10.90
0.28,-0.94,-0.91,-0.13,-0.42,10.67
-0.12,-1.13,-0.93,-0.20,-0.85,10.46
0.11,-1.18,-0.99,-0.07,-1.01,10.41
0.30,-1.13,-0.94,0.39,-0.46,10.46
-0.50,-0.71,-0.85,0.33,-0.48,10.27
-0.89,-0.43,-0.80,0.07,-0.70,9.66
-0.10,-0.26,-0.86,0.10,-0.91,9.41
0.30,0.27,-0.90,0.56,-0.91,9.71
-0.17,1.25,-0.88,0.15,-0.45,9.18
-0.94,1.12,-0.92,0.56,-0.74,9.60
-0.78,1.37,-0.88,0.65,-0.96,9.72
-0.53,1.55,-0.91,0.29,-0.71,9.93
-0.95,1.40,-0.79,0.20,-0.73,10.01
-1.16,1.20,-0.83,-0.03,-1.05,9.76
-0.70,0.73,-0.89,0.23,-1.11,9.60
-0.04,0.13,-0.91,0.22,-0.57,9.51
-0.38,0.02,-0.84,0.22,-0.48,9.53
-0.53,0.03,-0.85,0.23,-0.63,9.74
-0.89,0.09,-0.87,0.26,-0.72,10.24
-0.61,-0.47,-0.84,-0.16,-0.92,10.41
-0.47,-0.68,-0.81,0.35,-0.89,10.63
-0.46,-0.42,-0.73,0.18,-0.85,10.21
-0.75,-0.24,-0.72,0.11,-0.99,9.98
-0.02,0.26,-0.70,0.29,-1.21,9.76
0.20,0.66,-0.69,0.60,-1.30,9.86
0.48,1.41,-0.66,0.27,-1.30,9.70
0.63,1.54,-0.72,-0.01,-1.26,9.58
1.13,1.41,-0.65,0.37,-0.98,9.77
0.66,1.42,-0.58,0.24,-1.01,9.52
0.25,1.49,-0.65,0.16,-1.04,9.18
0.35,1.57,-0.70,0.24,-1.14,9.08
0.75,1.72,-0.66,0.27,-0.91,9.32
0.32,1.63,-0.67,-0.09,-0.56,9.44
-0.99,1.32,-0.76,0.10,-0.60,9.65
-1.83,1.32,-0.75,0.35,-0.98,9.86
-1.89,1.64,-0.75,-0.02,-1.23,9.83
-2.15,1.46,-0.78,0.09,-1.00,9.97
-2.71,1.09,-0.76,0.16,-0.95,9.92
-3.22,0.83,-0.78,-0.03,-1.18,9.80
-2.63,0.52,-0.77,0.38,-1.56,9.61
-1.90,0.97,-0.70,0.55,-1.26,10.11
-2.22,1.55,-0.57,0.16,-0.74,10.17
-3.29,1.51,-0.54,0.09,-0.80,10.33
-3.36,1.88,-0.56,0.21,-1.70,10.43
-2.67,1.98,-0.57,0.15,-1.66,10.31
-2.60,2.10,-0.58,0.34,-1.41,10.67
-3.01,2.31,-0.52,0.31,-1.18,10.70
-4.20,1.78,-0.51,-0.26,-1.87,10.28
-3.88,1.17,-0.65,-0.11,-2.14,9.87
-2.91,0.81,-0.67,0.17,-2.06,9.59
-2.53,0.74,-0.63,-0.05,-1.90,9.21
-2.99,0.44,-0.78,0.04,-1.81,9.00
-3.10,0.33,-0.78,0.05,-2.02,9.14
-2.97,0.29,-0.81,-0.15,-2.13,9.10
-2.89,-0.07,-0.78,-0.29,-2.28,9.11
-2.12,-0.96,-0.96,-0.28,-2.26,9.13
-1.76,-1.09,-0.92,-0.08,-2.15,9.25
-2.25,-1.07,-0.88,-0.04,-2.07,9.32
-2.91,-0.91,-0.83,0.12,-2.06,9.43
-4.23,-0.48,-0.64,0.02,-2.28,9.74
-4.47,-0.42,-0.65,-0.12,-2.34,9.77
-4.28,-0.52,-0.60,-0.31,-2.34,9.69
-4.14,-0.80,-0.66,-0.06,-2.46,9.75
-4.38,-0.87,-0.52,-0.06,-2.46,9.27
-4.43,-0.95,-0.58,-0.11,-2.56,8.97
-3.79,-0.97,-0.65,-0.01,-2.72,8.96
-2.80,-1.03,-0.60,-0.00,-2.81,8.99
-1.98,-1.53,-0.68,-0.01,-2.67,9.25
-2.05,-1.57,-0.75,-0.10,-2.54,9.38
-2.31,-1.69,-0.84,-0.27,-2.58,9.33
-2.57,-2.11,-0.96,-0.33,-2.66,9.33
-1.84,-2.51,-1.05,0.06,-2.63,9.45
-1.97,-2.36,-1.04,0.25,-2.54,9.52
-2.16,-1.95,-1.10,0.08,-2.57,9.44
-2.18,-1.64,-1.18,-0.14,-2.65,9.50
-1.54,-1.42,-1.38,0.02,-2.67,9.82
-1.56,-1.30,-1.38,0.02,-2.55,9.98
-1.81,-1.43,-1.47,0.01,-2.55,9.77
-1.91,-1.71,-1.47,0.12,-2.62,9.47
-1.66,-1.36,-1.44,0.08,-2.97,9.16
-1.16,-1.40,-1.50,-0.05,-3.11,9.12
-0.55,-1.49,-1.56,0.39,-3.18,9.46
0.09,-1.22,-1.39,0.55,-3.05,9.54
-0.04,-1.06,-1.32,0.39,-2.92,9.19
0.54,-0.56,-1.41,0.32,-2.89,9.41
0.31,-0.66,-1.39,0.24,-2.93,9.74
0.50,-0.87,-1.35,-0.04,-2.94,9.82
0.43,-1.56,-1.27,0.51,-2.95,9.46
0.81,-1.56,-1.13,0.12,-2.93,8.81
1.08,-1.45,-1.22,0.35,-2.99,8.90
1.91,-0.81,-1.14,0.15,-3.02,8.79
2.07,-1.00,-1.22,-0.01,-2.95,8.78
2.66,-1.20,-1.18,0.42,-3.07,9.14
3.19,-1.10,-1.09,0.42,-3.08,9.47
3.38,-0.76,-1.12,0.20,-2.86,9.39
2.86,-0.13,-1.06,0.34,-2.66,10.41
2.23,0.29,-0.99,0.26,-2.63,10.68
1.59,0.25,-1.02,0.27,-2.69,10.91
1.27,0.11,-1.03,0.29,-2.89,10.94
1.36,0.32,-0.86,0.27,-2.96,10.43
1.39,0.48,-0.88,0.35,-2.90,10.42
1.39,0.65,-0.83,0.46,-2.91,10.48
1.09,0.67,-0.70,0.36,-3.27,10.44
1.29,0.44,-0.68,0.14,-3.27,10.13
1.63,0.38,-0.80,0.05,-3.19,10.05
1.68,0.37,-0.83,0.48,-3.00,10.38
1.20,0.28,-0.74,0.23,-2.79,10.16
0.82,-0.20,-0.78,-0.23,-2.95,9.62
1.61,-0.50,-0.83,0.31,-3.40,9.56
1.94,-0.23,-0.85,0.21,-3.10,9.38
1.46,-0.18,-0.85,0.20,-2.91,9.52
1.25,0.02,-0.82,0.20,-3.06,9.80
1.42,0.10,-0.82,0.18,-2.95,10.16
1.26,0.23,-0.84,-0.03,-2.77,10.21
0.26,0.52,-0.94,0.43,-3.02,10.41
-0.09,0.93,-0.83,0.43,-3.21,10.42
0.14,1.17,-0.79,-0.03,-3.24,10.20
0.48,1.00,-0.82,0.07,-3.16,10.25
0.44,0.93,-0.82,0.45,-2.98,10.70
-0.83,0.73,-0.85,-0.20,-3.09,9.90
-0.62,0.28,-0.86,0.31,-3.46,9.84
0.13,0.39,-0.76,0.37,-3.25,9.61
0.30,0.61,-0.70,0.25,-2.91,9.38
-1.01,0.79,-0.64,0.30,-3.00,9.61
-1.27,1.03,-0.63,0.20,-3.44,9.53
-0.97,1.02,-0.64,0.08,-3.68,9.60
-0.27,0.87,-0.66,0.08,-3.52,9.64
-0.82,0.82,-0.66,0.17,-3.02,9.85
-1.21,0.75,-0.67,-0.08,-3.21,9.74
-1.42,0.37,-0.69,-0.11,-3.30,9.60
-1.28,0.16,-0.70,0.11,-3.33,9.61
-1.23,0.35,-0.70,0.12,-3.36,9.28
-1.22,0.23,-0.71,-0.13,-3.30,9.17
-1.10,-0.00,-0.76,-0.17,-3.48,9.39
-0.59,-0.13,-0.79,-0.12,-3.59,9.53
-0.35,-0.59,-0.70,0.09,-3.31,9.12
-0.28,-0.30,-0.67,0.30,-3.45,9.18
-0.08,0.46,-0.66,0.36,-3.58,9.81
-0.16,0.91,-0.69,-0.09,-3.35,10.28
-1.37,-0.13,-0.81,-0.03,-3.29,10.46
-1.73,0.20,-0.76,0.78,-3.46,10.38
-2.04,1.12,-0.58,0.64,-3.51,9.98
-2.15,1.60,-0.55,0.10,-3.53,9.70
-1.56,1.52,-0.69,0.01,-3.73,10.32
-1.22,1.24,-0.66,-0.16,-3.43,10.01
-1.50,0.79,-0.61,0.24,-3.36,10.04
-2.01,0.69,-0.55,0.42,-3.53,9.89
-1.70,0.75,-0.48,0.02,-3.66,9.47
-2.00,0.50,-0.49,-0.00,-3.85,9.48
-1.93,0.45,-0.50,0.27,-3.96,9.55
-1.69,0.57,-0.47,0.16,-3.86,9.40
-1.69,0.25,-0.52,0.07,-3.88,9.12
-1.37,0.39,-0.55,0.01,-3.91,9.07
-0.75,0.52,-0.57,-0.06,-3.92,9.15
-0.50,0.36,-0.57,0.01,-3.97,9.38
-0.25,0.21,-0.52,0.04,-3.71,9.46
-0.52,0.30,-0.54,0.11,-3.71,9.41
-0.63,0.48,-0.56,-0.13,-3.67,9.43
-0.53,0.44,-0.56,-0.25,-3.68,9.48
-0.95,-0.21,-0.54,-0.03,-3.73,9.31
-0.99,-0.05,-0.50,0.09,-3.82,9.20
-1.23,0.06,-0.53,-0.01,-3.95,9.15
-0.91,0.15,-0.57,-0.28,-4.06,9.17
0.63,-0.14,-0.70,-0.06,-4.22,9.81
1.14,-0.20,-0.63,-0.18,-3.71,9.77
0.45,-0.39,-0.68,-0.10,-3.45,9.83
-0.31,-0.47,-0.75,0.02,-3.59,9.91
-0.54,-0.60,-0.67,-0.09,-4.01,9.72
-0.26,-0.55,-0.62,0.10,-3.93,9.66
-0.38,-0.29,-0.54,0.29,-3.74,9.78
-0.82,-0.02,-0.54,0.05,-3.74,9.81
-1.00,0.16,-0.46,0.27,-4.04,9.93
-0.98,0.44,-0.41,0.11,-4.06,9.83
-0.81,0.73,-0.44,0.06,-4.01,9.72
-0.83,0.75,-0.41,0.21,-3.96,9.77
-1.37,0.93,-0.36,0.01,-4.22,9.56
-1.12,0.73,-0.40,0.18,-4.35,9.45
-0.75,0.59,-0.39,0.16,-4.35,9.39
-0.50,0.58,-0.41,-0.07,-4.29,9.13
0.38,-0.15,-0.55,-0.04,-4.07,9.17
0.74,-0.51,-0.48,0.15,-4.00,9.44
0.41,-0.53,-0.40,0.21,-3.91,9.67
-0.09,-0.45,-0.37,0.12,-4.02,9.64
0.01,-0.48,-0.45,-0.26,-4.29,9.53
0.25,-0.57,-0.57,-0.26,-4.30,9.72
0.29,-0.82,-0.63,-0.07,-4.06,9.89
-0.03,-0.89,-0.51,0.14,-3.84,9.92
-1.16,-0.56,-0.31,0.08,-4.08,9.50
-1.16,-0.16,-0.33,-0.15,-4.16,9.45
-0.98,0.13,-0.44,-0.13,-4.27,9.52
-0.79,0.29,-0.47,-0.01,-4.35,9.68
-0.18,0.29,-0.39,0.05,-4.15,9.42
-0.29,0.44,-0.37,0.23,-4.17,9.56
-0.32,0.76,-0.38,0.04,-4.29,9.67
-0.09,0.72,-0.41,-0.21,-4.36,9.69
0.11,0.40,-0.49,-0.23,-4.35,9.85
0.04,0.20,-0.58,0.12,-3.98,10.02
-0.50,0.08,-0.57,0.15,-3.97,10.05
-1.02,-0.08,-0.51,0.25,-4.19,10.26
-0.88,-0.30,-0.36,-0.25,-4.44,9.92
-0.74,-0.62,-0.47,-0.31,-4.32,9.76
-0.58,-0.84,-0.53,-0.14,-4.15,9.63
-0.71,-1.00,-0.53,0.11,-4.13,9.52
-0.34,-1.04,-0.32,0.19,-4.26,9.16
-0.19,-0.77,-0.26,0.12,-4.37,9.17
0.21,-0.39,-0.26,-0.06,-4.33,9.26
0.40,-0.27,-0.35,-0.20,-4.05,9.54
-0.92,-0.64,-0.39,0.00,-3.92,10.10
-1.85,-0.81,-0.35,0.18,-4.26,9.88
-1.99,-0.70,-0.22,0.23,-4.55,9.72
-1.57,-0.48,-0.10,0.11,-4.57,9.57
-0.90,-0.44,-0.12,0.01,-4.27,9.36
-0.92,-0.33,-0.14,0.04,-4.33,9.51
-0.90,-0.16,-0.14,0.10,-4.41,9.53
-0.80,-0.27,-0.14,0.07,-4.42,9.40
0.52,-0.11,-0.02,-0.02,-4.20,9.53
0.54,-0.13,-0.10,-0.19,-4.09,9.82
0.16,-0.34,-0.25,-0.24,-4.16,10.18
-0.24,-0.71,-0.34,-0.23,-4.31,10.17
-0.13,-1.16,-0.34,-0.30,-4.41,9.84
0.92,-1.59,-0.33,-0.02,-4.20,9.34
0.96,-1.43,-0.34,0.04,-4.10,9.33
0.75,-1.44,-0.36,-0.15,-4.24,9.34
1.65,-1.82,-0.41,-0.17,-4.41,9.20
2.06,-1.83,-0.41,0.05,-4.13,9.07
2.03,-1.49,-0.38,0.11,-3.87,9.00
1.93,-1.14,-0.32,-0.03,-3.96,9.25
2.15,-1.16,-0.40,-0.01,-4.30,9.62
2.64,-1.05,-0.38,0.10,-3.94,9.36
2.56,-0.60,-0.40,0.29,-3.69,9.26
2.07,0.04,-0.32,0.49,-3.85,9.43
1.83,0.63,-0.26,0.31,-4.20,9.69
2.82,0.96,-0.22,0.17,-4.16,9.76
2.86,1.12,-0.23,0.30,-3.65,9.67
2.33,1.56,-0.25,0.48,-3.42,9.68
1.56,1.61,-0.31,0.07,-3.99,10.03
1.88,1.02,-0.24,0.22,-3.92,10.22
1.78,0.68,-0.13,0.46,-3.46,10.24
1.03,0.65,-0.00,0.42,-3.03,9.99
-1.09,0.46,-0.13,0.07,-3.37,10.53
-1.66,0.03,-0.16,-0.34,-3.62,10.56
-2.20,-0.92,-0.22,-0.37,-3.78,10.27
-2.79,-1.72,-0.16,0.20,-3.94,9.88
-1.87,-1.11,-0.03,0.01,-4.15,8.56
-0.78,-0.82,-0.07,-0.03,-3.89,8.79
-0.58,-0.68,-0.05,-0.26,-3.51,9.32
-1.10,-0.81,-0.13,-0.35,-3.41,9.41
-1.63,-1.10,-0.03,0.00,-4.24,8.89
-0.26,-0.35,0.02,0.21,-4.30,8.62
1.06,0.33,0.09,0.02,-3.72,9.00
1.24,0.58,0.02,-0.41,-3.08,9.69
-1.27,-0.35,-0.26,-0.37,-3.42,10.10
-1.48,-0.54,-0.32,-0.05,-4.12,9.64
-0.18,-0.41,-0.17,0.21,-4.31,9.27
1.27,-0.09,-0.06,0.27,-3.86,9.33
0.32,0.32,-0.04,-0.09,-3.08,10.01
-0.81,-0.19,-0.16,-0.44,-3.62,9.99
-0.62,-0.77,-0.26,-0.13,-4.13,9.69
0.54,-0.85,-0.19,0.29,-4.03,9.26
1.12,-0.03,-0.10,0.17,-3.12,9.11
0.44,-0.01,-0.15,-0.12,-3.31,9.84
0.16,-0.36,-0.27,-0.33,-3.45,10.24
0.06,-1.04,-0.28,-0.34,-3.27,10.13
-0.54,-1.34,-0.25,0.45,-2.80,9.44
-1.21,-0.53,-0.21,0.49,-2.98,9.80
-1.60,0.03,-0.20,-0.12,-3.32,10.18
-1.86,-0.47,-0.20,-0.46,-3.55,10.49
-2.41,-1.11,-0.22,0.37,-3.26,10.12
-2.87,-0.21,-0.14,0.66,-3.18,9.78
-3.42,0.67,-0.07,0.28,-3.51,9.68
-3.17,0.88,-0.03,-0.13,-3.94,9.85
-1.67,0.20,0.04,0.18,-3.40,9.70
-2.02,0.36,0.06,0.52,-2.95,9.18
-2.29,0.90,0.09,0.41,-3.01,8.83
-2.13,1.14,0.15,0.01,-3.53,8.99
-0.54,0.17,-0.07,-0.21,-3.85,9.70
-0.01,-0.41,0.00,0.02,-3.25,9.70
-0.58,-0.69,-0.01,0.05,-2.96,9.44
-1.26,-0.75,-0.10,0.19,-3.26,9.45
-0.27,-0.76,-0.16,-0.38,-4.07,10.00
0.40,-1.13,-0.24,-0.47,-3.74,10.13
0.31,-1.56,-0.37,-0.31,-3.22,10.06
-0.03,-1.58,-0.41,0.03,-2.89,10.01
-0.76,-0.95,-0.48,0.03,-3.36,9.84
-0.20,-0.74,-0.45,-0.09,-3.50,10.01
0.37,-0.70,-0.40,-0.31,-3.26,10.04
0.32,-0.84,-0.43,-0.17,-2.88,9.95
-0.79,-0.25,-0.36,0.14,-2.99,9.79
-0.99,0.01,-0.35,0.05,-3.47,9.86
-0.50,-0.04,-0.31,-0.11,-3.65,9.96
-0.00,-0.26,-0.30,-0.14,-3.34,9.96
-1.01,-0.40,-0.21,0.25,-2.81,9.83
-1.66,-0.42,-0.11,0.21,-3.10,9.87
-1.67,-0.52,-0.09,0.04,-3.39,9.85
-1.27,-0.69,-0.05,0.07,-3.39,9.69
-0.97,-0.52,0.08,0.47,-2.68,9.42
-1.55,-0.16,0.17,0.63,-2.54,9.58
-2.28,-0.00,0.30,0.45,-2.76,9.71
-2.47,-0.08,0.43,0.23,-3.14,9.61
-1.56,0.21,0.54,0.54,-3.13,9.25
-1.64,0.96,0.55,0.46,-2.94,9.27
-2.10,1.30,0.46,0.11,-3.01,9.32
-2.08,1.09,0.33,-0.04,-3.33,9.57
-1.18,0.61,0.20,0.17,-3.33,9.39
-0.87,0.62,0.11,0.00,-3.13,9.19
-0.77,0.55,-0.06,0.04,-3.15,9.29
-0.47,0.43,-0.18,0.03,-3.14,9.53
-0.03,-0.26,-0.34,-0.14,-3.04,9.54
0.10,-0.45,-0.36,0.11,-2.96,9.60
0.16,-0.35,-0.37,0.10,-2.93,9.55
0.25,-0.22,-0.44,-0.04,-2.97,9.47
0.58,-0.04,-0.46,0.09,-2.96,9.78
0.61,0.17,-0.41,0.15,-2.73,9.74
0.10,0.34,-0.34,0.05,-2.70,9.54
-0.22,0.50,-0.32,-0.06,-3.01,9.30
1.22,1.08,-0.21,0.08,-2.93,9.31
1.34,1.25,-0.11,0.07,-2.43,9.27
0.72,1.20,-0.03,0.14,-2.24,9.26
0.02,1.10,0.11,0.01,-2.62,9.23
0.90,0.79,0.12,-0.12,-3.33,9.13
1.82,0.48,0.21,-0.09,-2.88,9.16
1.73,0.16,0.31,0.01,-2.31,9.19
0.87,-0.11,0.39,0.03,-2.20,9.17
0.17,-0.18,0.35,-0.14,-2.99,9.48
0.62,-0.38,0.36,-0.33,-3.15,9.63
0.96,-0.81,0.34,-0.26,-2.98,9.90
0.77,-1.15,0.28,0.00,-2.75,10.12
-0.13,-0.85,0.29,-0.18,-2.83,10.16
-0.57,-0.87,0.24,-0.34,-3.12,10.37
-0.79,-1.02,0.12,-0.23,-3.26,10.57
-0.66,-0.96,0.03,-0.15,-3.18,10.43
-0.67,-0.44,-0.11,-0.00,-3.20,9.96
-0.43,-0.21,-0.18,-0.03,-3.36,10.16
0.15,-0.19,-0.19,-0.24,-3.28,10.26
0.33,-0.61,-0.21,-0.35,-3.09,10.23
-0.05,-0.92,-0.35,0.15,-2.98,9.77
0.01,-0.60,-0.38,0.11,-3.10,9.48
0.37,-0.35,-0.41,0.01,-3.21,9.51
0.75,-0.38,-0.43,-0.06,-3.19,9.71
0.70,-0.93,-0.44,0.12,-2.78,9.57
0.38,-0.96,-0.39,0.28,-2.79,9.36
0.21,-0.77,-0.35,0.30,-2.99,9.20
0.49,-0.63,-0.32,0.23,-3.19,9.20
1.26,-0.79,-0.16,0.11,-2.86,9.32
1.08,-0.81,-0.12,0.26,-2.55,9.32
0.56,-0.71,-0.09,0.33,-2.48,9.21
0.08,-0.54,-0.05,0.38,-2.69,9.19
0.40,-0.22,0.10,0.20,-3.23,9.31
0.81,-0.18,0.15,0.21,-3.07,9.44
0.81,-0.14,0.21,0.22,-2.76,9.56
0.30,-0.09,0.23,0.23,-2.65,9.57
-0.17,-0.02,0.24,0.20,-3.07,9.49
0.18,0.07,0.25,0.18,-3.17,9.51
0.54,0.16,0.23,0.19,-3.02,9.64
0.52,0.17,0.24,0.17,-2.78,9.82
0.15,0.11,0.24,0.11,-2.71,9.92
-0.23,-0.14,0.17,0.07,-3.02,9.99
-0.08,-0.14,0.12,0.09,-3.06,9.94
0.08,-0.07,0.10,0.05,-3.00,9.90
0.02,0.04,-0.00,0.03,-2.87,10.12
-0.15,0.01,-0.04,-0.04,-2.89,10.14
-0.28,-0.09,-0.07,-0.07,-3.00,10.03
-0.17,-0.12,-0.08,-0.01,-3.11,9.89
0.40,0.23,-0.13,0.07,-2.97,9.77
0.38,0.35,-0.14,-0.03,-2.89,9.85
0.17,0.27,-0.15,-0.12,-2.91,9.90
0.07,0.11,-0.15,-0.12,-2.99,9.81
0.44,0.09,-0.16,0.12,-2.97,9.47
0.56,0.29,-0.14,0.12,-2.82,9.46
0.43,0.35,-0.13,0.05,-2.74,9.58
0.19,0.24,-0.11,-0.04,-2.79,9.70
-0.10,-0.11,-0.05,0.06,-2.99,9.56
-0.06,-0.08,-0.01,0.15,-3.02,9.45
0.01,0.04,0.02,0.16,-3.01,9.45
-0.01,0.12,0.05,0.07,-2.98,9.54
-0.34,-0.17,0.10,0.02,-2.96,9.58
-0.49,-0.25,0.14,0.11,-3.04,9.48
-0.50,-0.17,0.17,0.17,-3.14,9.42
-0.42,-0.01,0.21,0.12,-3.24,9.48
-0.55,-0.07,0.23,-0.02,-3.39,9.75
-0.59,-0.24,0.20,-0.01,-3.46,9.61
-0.09,-0.32,0.23,0.15,-3.28,9.41
0.20,-0.20,0.29,0.15,-3.03,9.25
1.05,0.10,0.25,0.02,-2.55,9.08
1.55,0.02,0.18,-0.12,-2.24,9.08
2.21,-0.06,0.15,-0.08,-1.85,8.92
2.95,-0.19,0.12,-0.01,-1.44,8.74
5.22,-0.06,0.06,0.08,-1.29,8.73
6.66,0.02,0.01,-0.00,-0.96,8.73
8.27,-0.04,0.03,-0.03,-0.49,8.82
9.16,-0.33,0.07,0.07,-0.10,9.06
8.93,-0.45,0.14,0.18,0.60,9.28
8.19,-0.38,0.17,0.06,0.78,9.23
7.36,-0.35,0.19,0.06,0.79,9.26
6.64,-0.37,0.19,0.04,0.74,9.25
6.23,-0.53,0.26,0.14,0.42,9.32
6.41,-0.55,0.30,0.12,0.29,9.28
6.89,-0.52,0.29,0.02,0.25,9.16
7.49,-0.56,0.26,-0.04,0.23,9.13
8.62,-0.42,0.25,0.04,0.37,9.62
8.61,-0.43,0.26,-0.02,0.54,9.85
8.22,-0.45,0.21,0.01,0.71,10.02
7.49,-0.45,0.17,0.05,0.80,10.08
6.00,-0.22,0.12,0.11,0.65,10.29
5.34,-0.17,0.07,0.08,0.43,10.50
4.91,-0.15,0.02,0.01,0.23,10.61
4.72,-0.23,-0.01,0.02,0.09,10.65
4.45,-0.19,-0.07,0.16,0.08,10.81
4.07,-0.11,-0.08,0.17,0.16,10.94
3.45,-0.10,-0.07,0.16,0.21,11.08
2.73,-0.13,-0.07,0.14,0.23,11.17
1.19,-0.15,-0.11,0.19,0.20,11.16
0.51,-0.12,-0.09,0.21,0.11,11.08
0.04,-0.08,-0.08,0.20,0.03,11.00
-0.22,-0.03,-0.06,0.21,-0.00,10.96
-0.61,-0.01,-0.03,0.15,0.08,10.82
-0.83,-0.09,-0.02,0.12,0.11,10.68
-1.01,-0.21,0.03,0.15,0.06,10.50
-1.02,-0.17,0.06,0.19,0.03,10.37
-1.29,-0.08,0.07,0.11,0.15,10.02
-1.57,-0.01,0.06,0.15,0.12,9.97
-1.78,0.10,0.04,0.13,0.05,9.86
-1.90,0.19,0.06,0.05,-0.03,9.73
-1.87,0.30,0.05,0.10,-0.27,9.71
-1.74,0.37,0.03,0.05,-0.32,9.68
-1.63,0.42,0.02,0.03,-0.36,9.69
-1.58,0.49,0.00,0.05,-0.39,9.74
-1.63,0.51,-0.00,-0.00,-0.39,9.78
-1.70,0.46,-0.01,-0.00,-0.38,9.80
-1.82,0.38,-0.04,0.01,-0.39,9.79
-1.92,0.31,-0.05,0.01,-0.41,9.74
-1.92,0.18,-0.09,0.03,-0.45,9.60
-1.80,0.13,-0.06,0.05,-0.47,9.53
-1.61,0.09,-0.06,0.06,-0.48,9.46
-1.33,0.06,-0.05,0.07,-0.46,9.40
-0.77,-0.02,0.01,0.08,-0.35,9.34
-0.59,-0.03,0.03,0.08,-0.30,9.33
-0.44,-0.02,0.03,0.08,-0.26,9.32
-0.30,-0.05,0.04,0.08,-0.26,9.34
0.04,-0.05,0.12,0.09,-0.27,9.38
0.23,-0.02,0.12,0.09,-0.27,9.43
0.36,0.03,0.13,0.09,-0.24,9.50
0.41,0.09,0.13,0.10,-0.20,9.60
0.28,0.18,0.14,0.06,-0.19,9.80
0.19,0.18,0.13,0.05,-0.23,9.90
0.15,0.15,0.12,0.05,-0.27,9.98
0.17,0.09,0.11,0.05,-0.27,10.03
0.04,0.00,0.07,0.06,-0.19,10.09
-0.06,-0.02,0.06,0.07,-0.18,10.09
-0.11,-0.01,0.05,0.08,-0.21,10.06
-0.07,0.00,0.07,0.09,-0.22,9.98
-0.04,-0.00,0.05,0.11,-0.17,9.94
-0.03,0.02,0.04,0.12,-0.15,9.91
-0.03,0.07,0.02,0.11,-0.15,9.86
-0.02,0.09,0.00,0.11,-0.18,9.82
0.06,0.09,0.02,0.11,-0.20,9.80
0.14,0.11,0.04,0.11,-0.19,9.76
0.15,0.12,0.04,0.12,-0.19,9.78
0.13,0.14,0.03,0.10,-0.23,9.78
0.12,0.09,0.04,0.10,-0.28,9.78
0.10,0.05,0.05,0.10,-0.26,9.77
0.03,0.06,0.08,0.09,-0.27,9.77
-0.03,0.06,0.11,0.08,-0.28,9.78
-0.09,0.05,0.08,0.05,-0.30,9.75
-0.08,0.01,0.09,0.06,-0.30,9.73
-0.09,-0.01,0.08,0.06,-0.29,9.70
-0.12,0.01,0.07,0.06,-0.26,9.69
-0.10,0.04,0.04,0.03,-0.25,9.69
-0.09,0.02,0.06,0.04,-0.24,9.69
-0.06,0.03,0.06,0.05,-0.22,9.69
-0.03,0.05,0.05,0.06,-0.22,9.69
0.02,0.07,0.04,0.04,-0.21,9.74
0.03,0.06,0.02,0.04,-0.21,9.77
0.06,0.05,0.01,0.05,-0.21,9.81
0.07,0.04,0.01,0.05,-0.21,9.83
0.03,0.00,0.00,0.07,-0.20,9.87
0.03,-0.01,-0.02,0.08,-0.21,9.89
0.00,-0.02,0.01,0.08,-0.21,9.92
-0.00,-0.02,0.04,0.08,-0.23,9.94
0.01,-0.08,0.04,0.09,-0.22,9.94
-0.01,-0.08,0.04,0.11,-0.20,9.92
-0.02,-0.05,0.04,0.10,-0.20,9.90
-0.02,-0.04,0.05,0.10,-0.21,9.88
-0.02,-0.02,0.07,0.08,-0.21,9.85
-0.02,-0.02,0.06,0.08,-0.21,9.83
-0.03,-0.03,0.05,0.08,-0.20,9.80
-0.03,-0.03,0.06,0.07,-0.20,9.78
0.02,-0.04,0.06,0.06,-0.21,9.75
0.01,-0.05,0.07,0.05,-0.21,9.75
0.01,-0.03,0.04,0.05,-0.21,9.75
-0.01,-0.04,0.02,0.06,-0.21,9.74
-0.01,-0.04,0.03,0.06,-0.25,9.74
-0.01,-0.05,0.03,0.06,-0.25,9.75
-0.02,-0.03,0.01,0.07,-0.25,9.76
-0.02,-0.02,0.00,0.07,-0.26,9.76
-0.07,-0.03,0.01,0.07,-0.29,9.77
-0.05,-0.04,0.02,0.08,-0.29,9.77
-0.03,-0.04,0.01,0.09,-0.28,9.78
-0.02,-0.04,0.03,0.09,-0.28,9.78
-0.01,-0.01,0.03,0.09,-0.27,9.78
0.01,-0.01,0.06,0.10,-0.27,9.79
0.00,-0.01,0.06,0.10,-0.26,9.78
0.04,0.01,0.04,0.10,-0.25,9.78
0.07,0.02,0.03,0.11,-0.24,9.80
0.07,0.04,0.04,0.10,-0.23,9.81
0.09,0.01,0.05,0.10,-0.22,9.81
0.08,0.01,0.05,0.10,-0.20,9.82
0.07,0.01,0.04,0.09,-0.21,9.85
0.07,-0.01,0.04,0.09,-0.20,9.85
0.08,0.01,0.06,0.08,-0.20,9.86
0.06,-0.01,0.05,0.08,-0.20,9.86
0.04,-0.00,0.03,0.08,-0.19,9.86
0.01,-0.01,0.01,0.07,-0.19,9.86
0.01,-0.02,0.02,0.06,-0.20,9.85
0.00,0.01,0.04,0.06,-0.19,9.83
-0.05,0.02,0.03,0.06,-0.20,9.81
-0.06,0.03,0.03,0.06,-0.21,9.79
-0.06,0.02,0.02,0.05,-0.21,9.78
-0.04,0.01,0.05,0.05,-0.21,9.77
-0.05,0.03,0.06,0.05,-0.22,9.75
-0.04,0.02,0.07,0.05,-0.23,9.75
-0.04,0.03,0.08,0.05,-0.24,9.75
-0.02,0.02,0.07,0.05,-0.25,9.75
-0.03,-0.02,0.07,0.05,-0.26,9.77
-0.02,-0.03,0.05,0.06,-0.27,9.77
-0.02,-0.05,0.04,0.07,-0.28,9.78
-0.02,-0.09,0.05,0.07,-0.27,9.79
-0.03,-0.09,0.03,0.07,-0.27,9.81
-0.04,-0.10,0.04,0.08,-0.27,9.81
-0.04,-0.12,0.06,0.08,-0.27,9.81
-0.01,-0.09,0.05,0.08,-0.27,9.81
0.02,-0.06,0.04,0.10,-0.24,9.82
0.02,-0.06,0.03,0.10,-0.24,9.81
0.01,-0.06,0.01,0.10,-0.23,9.81
0.01,-0.03,0.04,0.10,-0.23,9.81
0.07,-0.00,0.02,0.10,-0.22,9.81
0.07,0.02,0.04,0.10,-0.20,9.82
0.06,0.02,0.05,0.10,-0.20,9.82
0.06,0.03,0.05,0.10,-0.19,9.82
0.04,0.04,0.05,0.09,-0.20,9.82
0.04,0.01,0.04,0.10,-0.20,9.82
0.04,0.02,0.03,0.10,-0.20,9.82
0.02,0.00,0.03,0.09,-0.21,9.82
0.02,0.00,0.07,0.09,-0.22,9.81
0.01,-0.01,0.07,0.09,-0.22,9.81
-0.00,-0.02,0.06,0.10,-0.22,9.80
-0.03,-0.01,0.08,0.09,-0.23,9.79
-0.04,-0.03,0.05,0.08,-0.25,9.78
-0.04,-0.02,0.04,0.07,-0.25,9.77
-0.03,0.01,0.05,0.07,-0.25,9.77
-0.01,0.02,0.07,0.06,-0.24,9.78
-0.03,0.05,0.07,0.05,-0.24,9.78
-0.01,0.03,0.07,0.05,-0.24,9.78
0.01,0.03,0.07,0.05,-0.24,9.79
0.02,0.04,0.04,0.06,-0.24,9.80
-0.01,0.06,0.06,0.05,-0.23,9.81
-0.01,0.04,0.04,0.05,-0.23,9.82
-0.02,-0.00,0.02,0.05,-0.24,9.82
-0.01,0.01,0.01,0.05,-0.24,9.82
-0.00,-0.03,0.02,0.05,-0.24,9.82
-0.01,-0.04,0.02,0.06,-0.24,9.82
0.01,-0.06,0.02,0.07,-0.24,9.82
0.02,-0.08,0.02,0.07,-0.24,9.81
0.02,-0.04,0.02,0.08,-0.24,9.79
0.04,-0.04,0.01,0.09,-0.24,9.79
0.02,-0.06,0.04,0.10,-0.24,9.78
0.01,-0.06,0.05,0.10,-0.23,9.78
0.04,-0.05,0.03,0.10,-0.23,9.78
0.03,0.00,0.06,0.10,-0.23,9.78
0.05,-0.00,0.08,0.10,-0.23,9.79
0.04,-0.01,0.07,0.10,-0.22,9.80
0.02,0.01,0.05,0.09,-0.23,9.81
0.03,0.02,0.07,0.09,-0.22,9.81
0.05,0.04,0.06,0.08,-0.22,9.82
0.05,0.02,0.06,0.08,-0.22,9.82
